participant_id,player_alive,group_avg_contribution,player_contribution,round_number,gender,age,treatment
1,1,4.78,6,1,F,32,PGG100
2,1,4.78,6,1,M,19,PGG100
3,1,4.78,6,1,M,32,PGG100
4,1,4.78,10,1,M,20,PGG100
5,1,4.78,6,1,#N/A,#N/A,PGG100
6,1,4.78,0,1,M,21,PGG100
7,1,4.78,6,1,#N/A,#N/A,PGG100
8,1,4.78,10,1,M,31,PGG100
9,1,4.78,2,1,M,26,PGG100
10,1,4.78,2,1,F,43,PGG100
11,1,4.78,4,1,F,26,PGG100
12,0,4.78,1,1,#N/A,#N/A,PGG100
13,1,4.78,0,1,M,20,PGG100
14,1,4.78,4,1,F,41,PGG100
15,1,4.78,10,1,M,24,PGG100
16,1,4.78,2,1,F,25,PGG100
17,1,4.78,4,1,F,32,PGG100
18,1,4.78,8,1,F,30,PGG100
19,1,4.78,2,1,M,42,PGG100
20,1,4.78,4,1,F,36,PGG100
21,1,4.78,2,1,F,21,PGG100
22,1,4.78,0,1,M,23,PGG100
23,1,4.78,10,1,M,24,PGG100
24,1,4.78,6,1,F,27,PGG100
25,1,4.78,8,1,F,37,PGG100
26,1,4.78,2,1,F,27,PGG100
27,1,4.78,4,1,F,27,PGG100
28,1,4.78,6,1,F,27,PGG100
29,1,4.78,4,1,F,20,PGG100
30,1,4.78,4,1,F,21,PGG100
31,1,4.78,4,1,M,44,PGG100
32,1,4.78,4,1,M,21,PGG100
33,0,4.78,0,1,#N/A,#N/A,PGG100
34,1,4.78,6,1,M,29,PGG100
35,1,4.78,4,1,F,27,PGG100
36,1,4.78,10,1,F,31,PGG100
37,1,4.78,6,1,F,26,PGG100
38,1,4.78,4,1,M,20,PGG100
39,1,4.78,6,1,F,22,PGG100
40,1,4.78,2,1,F,21,PGG100
41,1,4.78,10,1,M,31,PGG100
42,1,4.78,8,1,#N/A,#N/A,PGG100
43,0,4.78,1,1,#N/A,#N/A,PGG100
44,1,4.78,4,1,F,23,PGG100
45,1,4.78,6,1,M,22,PGG100
46,0,4.78,0,1,#N/A,#N/A,PGG100
47,1,4.78,4,1,M,41,PGG100
48,1,4.78,4,1,F,20,PGG100
49,1,4.78,10,1,F,52,PGG100
50,1,4.78,4,1,M,22,PGG100
51,1,4.78,10,1,M,27,PGG100
52,1,4.78,2,1,F,26,PGG100
53,1,4.78,4,1,F,26,PGG100
54,1,4.78,0,1,M,37,PGG100
55,0,4.78,0,1,#N/A,#N/A,PGG100
56,1,4.78,6,1,F,28,PGG100
57,1,4.78,10,1,M,38,PGG100
58,1,4.78,6,1,F,26,PGG100
59,1,4.78,4,1,#N/A,#N/A,PGG100
60,1,4.78,0,1,M,22,PGG100
61,1,4.78,2,1,F,42,PGG100
62,1,4.78,4,1,F,23,PGG100
63,0,4.78,0,1,#N/A,#N/A,PGG100
64,1,4.78,0,1,M,35,PGG100
65,1,4.78,4,1,F,29,PGG100
66,1,4.78,0,1,M,23,PGG100
67,1,4.78,4,1,F,24,PGG100
68,1,4.78,8,1,M,25,PGG100
69,1,4.78,4,1,M,22,PGG100
70,1,4.78,6,1,F,22,PGG100
71,1,4.78,6,1,F,32,PGG100
72,1,4.78,4,1,M,34,PGG100
73,1,4.78,6,1,M,25,PGG100
74,1,4.78,4,1,F,24,PGG100
75,1,4.78,4,1,F,30,PGG100
76,1,4.78,6,1,F,28,PGG100
77,1,4.78,10,1,F,42,PGG100
78,1,4.78,2,1,F,22,PGG100
79,1,4.78,8,1,F,25,PGG100
80,1,4.78,10,1,F,25,PGG100
81,1,4.78,2,1,F,43,PGG100
82,1,4.78,2,1,F,22,PGG100
83,1,4.78,2,1,F,31,PGG100
84,1,4.78,4,1,F,27,PGG100
85,1,4.78,8,1,F,20,PGG100
86,1,4.78,10,1,F,25,PGG100
87,1,4.78,4,1,M,22,PGG100
88,1,4.78,4,1,M,32,PGG100
89,1,4.78,2,1,M,32,PGG100
90,1,4.78,8,1,M,22,PGG100
91,1,4.78,10,1,M,23,PGG100
92,1,4.78,2,1,M,29,PGG100
93,1,4.78,0,1,F,22,PGG100
94,1,4.78,0,1,M,24,PGG100
95,0,4.78,1,1,#N/A,#N/A,PGG100
96,1,4.78,4,1,M,35,PGG100
97,1,4.78,4,1,F,22,PGG100
98,1,4.78,0,1,M,31,PGG100
99,0,4.78,0,1,#N/A,#N/A,PGG100
100,1,4.78,6,1,M,33,PGG100
,,,,,,,
1,1,5.36,4,2,F,32,PGG100
2,1,5.36,8,2,M,19,PGG100
3,1,5.36,4,2,M,32,PGG100
4,1,5.36,8,2,M,20,PGG100
5,1,5.36,6,2,#N/A,#N/A,PGG100
6,1,5.36,0,2,M,21,PGG100
7,1,5.36,6,2,#N/A,#N/A,PGG100
8,1,5.36,10,2,M,31,PGG100
9,1,5.36,6,2,M,26,PGG100
10,1,5.36,10,2,F,43,PGG100
11,1,5.36,6,2,F,26,PGG100
12,0,5.36,0,2,#N/A,#N/A,PGG100
13,1,5.36,0,2,M,20,PGG100
14,1,5.36,6,2,F,41,PGG100
15,1,5.36,10,2,M,24,PGG100
16,1,5.36,4,2,F,25,PGG100
17,1,5.36,6,2,F,32,PGG100
18,1,5.36,8,2,F,30,PGG100
19,1,5.36,4,2,M,42,PGG100
20,1,5.36,6,2,F,36,PGG100
21,1,5.36,4,2,F,21,PGG100
22,1,5.36,0,2,M,23,PGG100
23,1,5.36,10,2,M,24,PGG100
24,1,5.36,8,2,F,27,PGG100
25,1,5.36,8,2,F,37,PGG100
26,1,5.36,2,2,F,27,PGG100
27,1,5.36,4,2,F,27,PGG100
28,1,5.36,0,2,F,27,PGG100
29,1,5.36,8,2,F,20,PGG100
30,1,5.36,6,2,F,21,PGG100
31,1,5.36,6,2,M,44,PGG100
32,1,5.36,2,2,M,21,PGG100
33,0,5.36,0,2,#N/A,#N/A,PGG100
34,1,5.36,8,2,M,29,PGG100
35,1,5.36,6,2,F,27,PGG100
36,1,5.36,10,2,F,31,PGG100
37,1,5.36,6,2,F,26,PGG100
38,1,5.36,6,2,M,20,PGG100
39,1,5.36,4,2,F,22,PGG100
40,1,5.36,6,2,F,21,PGG100
41,1,5.36,8,2,M,31,PGG100
42,1,5.36,10,2,#N/A,#N/A,PGG100
43,0,5.36,0,2,#N/A,#N/A,PGG100
44,1,5.36,4,2,F,23,PGG100
45,1,5.36,4,2,M,22,PGG100
46,0,5.36,0,2,#N/A,#N/A,PGG100
47,1,5.36,6,2,M,41,PGG100
48,1,5.36,6,2,F,20,PGG100
49,1,5.36,2,2,F,52,PGG100
50,1,5.36,2,2,M,22,PGG100
51,1,5.36,10,2,M,27,PGG100
52,1,5.36,8,2,F,26,PGG100
53,1,5.36,8,2,F,26,PGG100
54,1,5.36,4,2,M,37,PGG100
55,0,5.36,0,2,#N/A,#N/A,PGG100
56,1,5.36,6,2,F,28,PGG100
57,1,5.36,10,2,M,38,PGG100
58,1,5.36,2,2,F,26,PGG100
59,1,5.36,5,2,#N/A,#N/A,PGG100
60,1,5.36,0,2,M,22,PGG100
61,1,5.36,2,2,F,42,PGG100
62,1,5.36,6,2,F,23,PGG100
63,0,5.36,0,2,#N/A,#N/A,PGG100
64,1,5.36,0,2,M,35,PGG100
65,1,5.36,10,2,F,29,PGG100
66,1,5.36,0,2,M,23,PGG100
67,1,5.36,6,2,F,24,PGG100
68,1,5.36,8,2,M,25,PGG100
69,1,5.36,2,2,M,22,PGG100
70,1,5.36,6,2,F,22,PGG100
71,1,5.36,6,2,F,32,PGG100
72,1,5.36,6,2,M,34,PGG100
73,1,5.36,0,2,M,25,PGG100
74,1,5.36,4,2,F,24,PGG100
75,1,5.36,6,2,F,30,PGG100
76,1,5.36,6,2,F,28,PGG100
77,1,5.36,10,2,F,42,PGG100
78,1,5.36,6,2,F,22,PGG100
79,1,5.36,6,2,F,25,PGG100
80,1,5.36,6,2,F,25,PGG100
81,1,5.36,2,2,F,43,PGG100
82,1,5.36,4,2,F,22,PGG100
83,1,5.36,4,2,F,31,PGG100
84,1,5.36,6,2,F,27,PGG100
85,1,5.36,6,2,F,20,PGG100
86,1,5.36,6,2,F,25,PGG100
87,1,5.36,4,2,M,22,PGG100
88,1,5.36,6,2,M,32,PGG100
89,1,5.36,6,2,M,32,PGG100
90,1,5.36,6,2,M,22,PGG100
91,1,5.36,8,2,M,23,PGG100
92,1,5.36,4,2,M,29,PGG100
93,1,5.36,0,2,F,22,PGG100
94,1,5.36,0,2,M,24,PGG100
95,0,5.36,0,2,#N/A,#N/A,PGG100
96,1,5.36,10,2,M,35,PGG100
97,1,5.36,6,2,F,22,PGG100
98,1,5.36,0,2,M,31,PGG100
99,0,5.36,0,2,#N/A,#N/A,PGG100
100,1,5.36,8,2,M,33,PGG100
,,,,,,,
1,1,5.34,6,3,F,32,PGG100
2,1,5.34,8,3,M,19,PGG100
3,1,5.34,6,3,M,32,PGG100
4,1,5.34,6,3,M,20,PGG100
5,1,5.34,6,3,#N/A,#N/A,PGG100
6,1,5.34,0,3,M,21,PGG100
7,1,5.34,8,3,#N/A,#N/A,PGG100
8,1,5.34,10,3,M,31,PGG100
9,1,5.34,6,3,M,26,PGG100
10,1,5.34,6,3,F,43,PGG100
11,1,5.34,6,3,F,26,PGG100
12,0,5.34,0,3,#N/A,#N/A,PGG100
13,1,5.34,0,3,M,20,PGG100
14,1,5.34,6,3,F,41,PGG100
15,1,5.34,10,3,M,24,PGG100
16,1,5.34,4,3,F,25,PGG100
17,1,5.34,4,3,F,32,PGG100
18,1,5.34,6,3,F,30,PGG100
19,1,5.34,6,3,M,42,PGG100
20,1,5.34,8,3,F,36,PGG100
21,1,5.34,4,3,F,21,PGG100
22,1,5.34,0,3,M,23,PGG100
23,1,5.34,10,3,M,24,PGG100
24,1,5.34,8,3,F,27,PGG100
25,1,5.34,6,3,F,37,PGG100
26,1,5.34,0,3,F,27,PGG100
27,1,5.34,4,3,F,27,PGG100
28,1,5.34,2,3,F,27,PGG100
29,1,5.34,6,3,F,20,PGG100
30,1,5.34,6,3,F,21,PGG100
31,1,5.34,0,3,M,44,PGG100
32,1,5.34,4,3,M,21,PGG100
33,0,5.34,0,3,#N/A,#N/A,PGG100
34,1,5.34,6,3,M,29,PGG100
35,1,5.34,8,3,F,27,PGG100
36,1,5.34,10,3,F,31,PGG100
37,1,5.34,8,3,F,26,PGG100
38,1,5.34,6,3,M,20,PGG100
39,1,5.34,4,3,F,22,PGG100
40,1,5.34,6,3,F,21,PGG100
41,1,5.34,10,3,M,31,PGG100
42,1,5.34,0,3,#N/A,#N/A,PGG100
43,0,5.34,0,3,#N/A,#N/A,PGG100
44,1,5.34,6,3,F,23,PGG100
45,1,5.34,8,3,M,22,PGG100
46,0,5.34,0,3,#N/A,#N/A,PGG100
47,1,5.34,8,3,M,41,PGG100
48,1,5.34,6,3,F,20,PGG100
49,1,5.34,2,3,F,52,PGG100
50,1,5.34,6,3,M,22,PGG100
51,1,5.34,8,3,M,27,PGG100
52,1,5.34,9,3,F,26,PGG100
53,1,5.34,6,3,F,26,PGG100
54,1,5.34,0,3,M,37,PGG100
55,0,5.34,0,3,#N/A,#N/A,PGG100
56,1,5.34,8,3,F,28,PGG100
57,1,5.34,10,3,M,38,PGG100
58,1,5.34,6,3,F,26,PGG100
59,1,5.34,6,3,#N/A,#N/A,PGG100
60,1,5.34,0,3,M,22,PGG100
61,1,5.34,2,3,F,42,PGG100
62,1,5.34,4,3,F,23,PGG100
63,0,5.34,0,3,#N/A,#N/A,PGG100
64,1,5.34,0,3,M,35,PGG100
65,1,5.34,10,3,F,29,PGG100
66,1,5.34,0,3,M,23,PGG100
67,1,5.34,4,3,F,24,PGG100
68,1,5.34,4,3,M,25,PGG100
69,1,5.34,2,3,M,22,PGG100
70,1,5.34,8,3,F,22,PGG100
71,1,5.34,6,3,F,32,PGG100
72,1,5.34,8,3,M,34,PGG100
73,1,5.34,10,3,M,25,PGG100
74,1,5.34,6,3,F,24,PGG100
75,1,5.34,2,3,F,30,PGG100
76,1,5.34,6,3,F,28,PGG100
77,1,5.34,10,3,F,42,PGG100
78,1,5.34,4,3,F,22,PGG100
79,1,5.34,6,3,F,25,PGG100
80,1,5.34,8,3,F,25,PGG100
81,1,5.34,2,3,F,43,PGG100
82,1,5.34,4,3,F,22,PGG100
83,1,5.34,6,3,F,31,PGG100
84,1,5.34,8,3,F,27,PGG100
85,1,5.34,8,3,F,20,PGG100
86,1,5.34,4,3,F,25,PGG100
87,1,5.34,2,3,M,22,PGG100
88,1,5.34,6,3,M,32,PGG100
89,1,5.34,4,3,M,32,PGG100
90,1,5.34,8,3,M,22,PGG100
91,1,5.34,0,3,M,23,PGG100
92,1,5.34,8,3,M,29,PGG100
93,1,5.34,2,3,F,22,PGG100
94,1,5.34,0,3,M,24,PGG100
95,0,5.34,0,3,#N/A,#N/A,PGG100
96,1,5.34,6,3,M,35,PGG100
97,1,5.34,4,3,F,22,PGG100
98,1,5.34,0,3,M,31,PGG100
99,0,5.34,0,3,#N/A,#N/A,PGG100
100,1,5.34,10,3,M,33,PGG100
,,,,,,,
1,1,5.05,4,4,F,32,PGG100
2,1,5.05,8,4,M,19,PGG100
3,1,5.05,6,4,M,32,PGG100
4,1,5.05,4,4,M,20,PGG100
5,1,5.05,5,4,#N/A,#N/A,PGG100
6,1,5.05,0,4,M,21,PGG100
7,1,5.05,7,4,#N/A,#N/A,PGG100
8,1,5.05,10,4,M,31,PGG100
9,1,5.05,6,4,M,26,PGG100
10,1,5.05,6,4,F,43,PGG100
11,1,5.05,4,4,F,26,PGG100
12,0,5.05,0,4,#N/A,#N/A,PGG100
13,1,5.05,0,4,M,20,PGG100
14,1,5.05,6,4,F,41,PGG100
15,1,5.05,10,4,M,24,PGG100
16,1,5.05,4,4,F,25,PGG100
17,1,5.05,4,4,F,32,PGG100
18,1,5.05,8,4,F,30,PGG100
19,1,5.05,4,4,M,42,PGG100
20,1,5.05,6,4,F,36,PGG100
21,1,5.05,6,4,F,21,PGG100
22,1,5.05,0,4,M,23,PGG100
23,1,5.05,10,4,M,24,PGG100
24,1,5.05,6,4,F,27,PGG100
25,1,5.05,10,4,F,37,PGG100
26,1,5.05,0,4,F,27,PGG100
27,1,5.05,6,4,F,27,PGG100
28,1,5.05,0,4,F,27,PGG100
29,1,5.05,10,4,F,20,PGG100
30,1,5.05,4,4,F,21,PGG100
31,1,5.05,2,4,M,44,PGG100
32,1,5.05,4,4,M,21,PGG100
33,0,5.05,0,4,#N/A,#N/A,PGG100
34,1,5.05,8,4,M,29,PGG100
35,1,5.05,10,4,F,27,PGG100
36,1,5.05,10,4,F,31,PGG100
37,1,5.05,6,4,F,26,PGG100
38,1,5.05,0,4,M,20,PGG100
39,1,5.05,4,4,F,22,PGG100
40,1,5.05,6,4,F,21,PGG100
41,1,5.05,8,4,M,31,PGG100
42,1,5.05,6,4,#N/A,#N/A,PGG100
43,0,5.05,0,4,#N/A,#N/A,PGG100
44,1,5.05,6,4,F,23,PGG100
45,1,5.05,6,4,M,22,PGG100
46,0,5.05,0,4,#N/A,#N/A,PGG100
47,1,5.05,0,4,M,41,PGG100
48,1,5.05,8,4,F,20,PGG100
49,1,5.05,2,4,F,52,PGG100
50,1,5.05,4,4,M,22,PGG100
51,1,5.05,2,4,M,27,PGG100
52,1,5.05,6,4,F,26,PGG100
53,1,5.05,6,4,F,26,PGG100
54,1,5.05,2,4,M,37,PGG100
55,0,5.05,0,4,#N/A,#N/A,PGG100
56,1,5.05,8,4,F,28,PGG100
57,1,5.05,10,4,M,38,PGG100
58,1,5.05,6,4,F,26,PGG100
59,1,5.05,4,4,#N/A,#N/A,PGG100
60,1,5.05,0,4,M,22,PGG100
61,1,5.05,2,4,F,42,PGG100
62,1,5.05,6,4,F,23,PGG100
63,0,5.05,0,4,#N/A,#N/A,PGG100
64,1,5.05,0,4,M,35,PGG100
65,1,5.05,8,4,F,29,PGG100
66,1,5.05,0,4,M,23,PGG100
67,1,5.05,4,4,F,24,PGG100
68,1,5.05,4,4,M,25,PGG100
69,1,5.05,10,4,M,22,PGG100
70,1,5.05,0,4,F,22,PGG100
71,1,5.05,8,4,F,32,PGG100
72,1,5.05,6,4,M,34,PGG100
73,1,5.05,4,4,M,25,PGG100
74,1,5.05,6,4,F,24,PGG100
75,1,5.05,6,4,F,30,PGG100
76,1,5.05,6,4,F,28,PGG100
77,1,5.05,10,4,F,42,PGG100
78,1,5.05,8,4,F,22,PGG100
79,1,5.05,8,4,F,25,PGG100
80,1,5.05,6,4,F,25,PGG100
81,1,5.05,2,4,F,43,PGG100
82,1,5.05,6,4,F,22,PGG100
83,1,5.05,0,4,F,31,PGG100
84,1,5.05,7,4,F,27,PGG100
85,1,5.05,8,4,F,20,PGG100
86,1,5.05,4,4,F,25,PGG100
87,1,5.05,2,4,M,22,PGG100
88,1,5.05,4,4,M,32,PGG100
89,1,5.05,4,4,M,32,PGG100
90,1,5.05,6,4,M,22,PGG100
91,1,5.05,0,4,M,23,PGG100
92,1,5.05,4,4,M,29,PGG100
93,1,5.05,4,4,F,22,PGG100
94,1,5.05,6,4,M,24,PGG100
95,0,5.05,0,4,#N/A,#N/A,PGG100
96,1,5.05,8,4,M,35,PGG100
97,1,5.05,6,4,F,22,PGG100
98,1,5.05,0,4,M,31,PGG100
99,0,5.05,0,4,#N/A,#N/A,PGG100
100,1,5.05,4,4,M,33,PGG100
,,,,,,,
1,1,4.91,6,5,F,32,PGG100
2,1,4.91,4,5,M,19,PGG100
3,1,4.91,4,5,M,32,PGG100
4,1,4.91,6,5,M,20,PGG100
5,0,4.91,6,5,#N/A,#N/A,PGG100
6,1,4.91,0,5,M,21,PGG100
7,0,4.91,6,5,#N/A,#N/A,PGG100
8,1,4.91,10,5,M,31,PGG100
9,1,4.91,2,5,M,26,PGG100
10,1,4.91,6,5,F,43,PGG100
11,1,4.91,6,5,F,26,PGG100
12,0,4.91,0,5,#N/A,#N/A,PGG100
13,1,4.91,0,5,M,20,PGG100
14,1,4.91,6,5,F,41,PGG100
15,1,4.91,10,5,M,24,PGG100
16,1,4.91,6,5,F,25,PGG100
17,1,4.91,4,5,F,32,PGG100
18,1,4.91,0,5,F,30,PGG100
19,1,4.91,6,5,M,42,PGG100
20,1,4.91,6,5,F,36,PGG100
21,1,4.91,2,5,F,21,PGG100
22,1,4.91,0,5,M,23,PGG100
23,1,4.91,10,5,M,24,PGG100
24,1,4.91,8,5,F,27,PGG100
25,1,4.91,10,5,F,37,PGG100
26,1,4.91,0,5,F,27,PGG100
27,1,4.91,4,5,F,27,PGG100
28,1,4.91,2,5,F,27,PGG100
29,1,4.91,8,5,F,20,PGG100
30,1,4.91,6,5,F,21,PGG100
31,1,4.91,0,5,M,44,PGG100
32,1,4.91,4,5,M,21,PGG100
33,0,4.91,0,5,#N/A,#N/A,PGG100
34,1,4.91,2,5,M,29,PGG100
35,1,4.91,8,5,F,27,PGG100
36,1,4.91,10,5,F,31,PGG100
37,1,4.91,6,5,F,26,PGG100
38,1,4.91,0,5,M,20,PGG100
39,1,4.91,2,5,F,22,PGG100
40,1,4.91,4,5,F,21,PGG100
41,1,4.91,10,5,M,31,PGG100
42,1,4.91,6,5,#N/A,#N/A,PGG100
43,0,4.91,0,5,#N/A,#N/A,PGG100
44,1,4.91,4,5,F,23,PGG100
45,1,4.91,6,5,M,22,PGG100
46,0,4.91,0,5,#N/A,#N/A,PGG100
47,1,4.91,2,5,M,41,PGG100
48,1,4.91,8,5,F,20,PGG100
49,1,4.91,2,5,F,52,PGG100
50,1,4.91,2,5,M,22,PGG100
51,1,4.91,2,5,M,27,PGG100
52,1,4.91,6,5,F,26,PGG100
53,1,4.91,10,5,F,26,PGG100
54,1,4.91,2,5,M,37,PGG100
55,0,4.91,0,5,#N/A,#N/A,PGG100
56,1,4.91,6,5,F,28,PGG100
57,1,4.91,10,5,M,38,PGG100
58,1,4.91,6,5,F,26,PGG100
59,1,4.91,6,5,#N/A,#N/A,PGG100
60,1,4.91,0,5,M,22,PGG100
61,1,4.91,2,5,F,42,PGG100
62,1,4.91,4,5,F,23,PGG100
63,0,4.91,0,5,#N/A,#N/A,PGG100
64,1,4.91,0,5,M,35,PGG100
65,1,4.91,10,5,F,29,PGG100
66,1,4.91,0,5,M,23,PGG100
67,1,4.91,4,5,F,24,PGG100
68,1,4.91,4,5,M,25,PGG100
69,1,4.91,4,5,M,22,PGG100
70,1,4.91,6,5,F,22,PGG100
71,1,4.91,6,5,F,32,PGG100
72,1,4.91,8,5,M,34,PGG100
73,1,4.91,4,5,M,25,PGG100
74,1,4.91,4,5,F,24,PGG100
75,1,4.91,8,5,F,30,PGG100
76,1,4.91,6,5,F,28,PGG100
77,1,4.91,10,5,F,42,PGG100
78,1,4.91,4,5,F,22,PGG100
79,1,4.91,6,5,F,25,PGG100
80,1,4.91,6,5,F,25,PGG100
81,1,4.91,2,5,F,43,PGG100
82,1,4.91,6,5,F,22,PGG100
83,1,4.91,0,5,F,31,PGG100
84,1,4.91,6,5,F,27,PGG100
85,1,4.91,6,5,F,20,PGG100
86,1,4.91,6,5,F,25,PGG100
87,1,4.91,6,5,M,22,PGG100
88,1,4.91,4,5,M,32,PGG100
89,1,4.91,4,5,M,32,PGG100
90,1,4.91,6,5,M,22,PGG100
91,1,4.91,6,5,M,23,PGG100
92,1,4.91,10,5,M,29,PGG100
93,1,4.91,4,5,F,22,PGG100
94,1,4.91,6,5,M,24,PGG100
95,0,4.91,0,5,#N/A,#N/A,PGG100
96,1,4.91,6,5,M,35,PGG100
97,1,4.91,6,5,F,22,PGG100
98,1,4.91,0,5,M,31,PGG100
99,0,4.91,0,5,#N/A,#N/A,PGG100
100,1,4.91,6,5,M,33,PGG100
,,,,,,,
1,1,4.71,4,6,F,32,PGG100
2,1,4.71,6,6,M,19,PGG100
3,1,4.71,4,6,M,32,PGG100
4,1,4.71,6,6,M,20,PGG100
5,0,4.71,0,6,#N/A,#N/A,PGG100
6,1,4.71,0,6,M,21,PGG100
7,0,4.71,0,6,#N/A,#N/A,PGG100
8,1,4.71,10,6,M,31,PGG100
9,1,4.71,2,6,M,26,PGG100
10,1,4.71,4,6,F,43,PGG100
11,1,4.71,4,6,F,26,PGG100
12,0,4.71,0,6,#N/A,#N/A,PGG100
13,1,4.71,0,6,M,20,PGG100
14,1,4.71,6,6,F,41,PGG100
15,1,4.71,10,6,M,24,PGG100
16,1,4.71,6,6,F,25,PGG100
17,1,4.71,4,6,F,32,PGG100
18,1,4.71,6,6,F,30,PGG100
19,1,4.71,4,6,M,42,PGG100
20,1,4.71,8,6,F,36,PGG100
21,1,4.71,4,6,F,21,PGG100
22,1,4.71,0,6,M,23,PGG100
23,1,4.71,10,6,M,24,PGG100
24,1,4.71,4,6,F,27,PGG100
25,1,4.71,8,6,F,37,PGG100
26,1,4.71,0,6,F,27,PGG100
27,1,4.71,4,6,F,27,PGG100
28,1,4.71,4,6,F,27,PGG100
29,1,4.71,4,6,F,20,PGG100
30,1,4.71,4,6,F,21,PGG100
31,1,4.71,0,6,M,44,PGG100
32,1,4.71,2,6,M,21,PGG100
33,0,4.71,0,6,#N/A,#N/A,PGG100
34,1,4.71,2,6,M,29,PGG100
35,1,4.71,8,6,F,27,PGG100
36,1,4.71,10,6,F,31,PGG100
37,1,4.71,6,6,F,26,PGG100
38,1,4.71,0,6,M,20,PGG100
39,1,4.71,2,6,F,22,PGG100
40,1,4.71,4,6,F,21,PGG100
41,1,4.71,6,6,M,31,PGG100
42,1,4.71,6,6,#N/A,#N/A,PGG100
43,0,4.71,0,6,#N/A,#N/A,PGG100
44,1,4.71,4,6,F,23,PGG100
45,1,4.71,8,6,M,22,PGG100
46,0,4.71,0,6,#N/A,#N/A,PGG100
47,1,4.71,4,6,M,41,PGG100
48,1,4.71,6,6,F,20,PGG100
49,1,4.71,2,6,F,52,PGG100
50,1,4.71,4,6,M,22,PGG100
51,1,4.71,6,6,M,27,PGG100
52,1,4.71,6,6,F,26,PGG100
53,1,4.71,4,6,F,26,PGG100
54,1,4.71,0,6,M,37,PGG100
55,0,4.71,0,6,#N/A,#N/A,PGG100
56,1,4.71,6,6,F,28,PGG100
57,1,4.71,10,6,M,38,PGG100
58,1,4.71,4,6,F,26,PGG100
59,1,4.71,4,6,#N/A,#N/A,PGG100
60,1,4.71,0,6,M,22,PGG100
61,1,4.71,2,6,F,42,PGG100
62,1,4.71,8,6,F,23,PGG100
63,0,4.71,0,6,#N/A,#N/A,PGG100
64,1,4.71,0,6,M,35,PGG100
65,1,4.71,9,6,F,29,PGG100
66,1,4.71,0,6,M,23,PGG100
67,1,4.71,4,6,F,24,PGG100
68,1,4.71,6,6,M,25,PGG100
69,1,4.71,0,6,M,22,PGG100
70,1,4.71,6,6,F,22,PGG100
71,1,4.71,7,6,F,32,PGG100
72,1,4.71,6,6,M,34,PGG100
73,1,4.71,4,6,M,25,PGG100
74,1,4.71,6,6,F,24,PGG100
75,1,4.71,4,6,F,30,PGG100
76,1,4.71,6,6,F,28,PGG100
77,1,4.71,10,6,F,42,PGG100
78,1,4.71,6,6,F,22,PGG100
79,1,4.71,8,6,F,25,PGG100
80,1,4.71,4,6,F,25,PGG100
81,1,4.71,0,6,F,43,PGG100
82,1,4.71,4,6,F,22,PGG100
83,1,4.71,2,6,F,31,PGG100
84,1,4.71,8,6,F,27,PGG100
85,1,4.71,8,6,F,20,PGG100
86,1,4.71,4,6,F,25,PGG100
87,1,4.71,2,6,M,22,PGG100
88,1,4.71,4,6,M,32,PGG100
89,1,4.71,4,6,M,32,PGG100
90,1,4.71,6,6,M,22,PGG100
91,1,4.71,10,6,M,23,PGG100
92,1,4.71,4,6,M,29,PGG100
93,1,4.71,6,6,F,22,PGG100
94,1,4.71,10,6,M,24,PGG100
95,0,4.71,0,6,#N/A,#N/A,PGG100
96,1,4.71,4,6,M,35,PGG100
97,1,4.71,4,6,F,22,PGG100
98,1,4.71,0,6,M,31,PGG100
99,0,4.71,0,6,#N/A,#N/A,PGG100
100,1,4.71,8,6,M,33,PGG100
,,,,,,,
1,1,4.67,4,7,F,32,PGG100
2,1,4.67,10,7,M,19,PGG100
3,1,4.67,4,7,M,32,PGG100
4,1,4.67,6,7,M,20,PGG100
5,0,4.67,0,7,#N/A,#N/A,PGG100
6,1,4.67,0,7,M,21,PGG100
7,0,4.67,0,7,#N/A,#N/A,PGG100
8,1,4.67,10,7,M,31,PGG100
9,1,4.67,1,7,M,26,PGG100
10,1,4.67,4,7,F,43,PGG100
11,1,4.67,4,7,F,26,PGG100
12,0,4.67,0,7,#N/A,#N/A,PGG100
13,1,4.67,0,7,M,20,PGG100
14,1,4.67,4,7,F,41,PGG100
15,1,4.67,10,7,M,24,PGG100
16,1,4.67,4,7,F,25,PGG100
17,1,4.67,4,7,F,32,PGG100
18,1,4.67,6,7,F,30,PGG100
19,1,4.67,4,7,M,42,PGG100
20,1,4.67,4,7,F,36,PGG100
21,1,4.67,4,7,F,21,PGG100
22,1,4.67,0,7,M,23,PGG100
23,1,4.67,10,7,M,24,PGG100
24,1,4.67,8,7,F,27,PGG100
25,1,4.67,10,7,F,37,PGG100
26,1,4.67,0,7,F,27,PGG100
27,1,4.67,4,7,F,27,PGG100
28,1,4.67,4,7,F,27,PGG100
29,1,4.67,2,7,F,20,PGG100
30,1,4.67,2,7,F,21,PGG100
31,1,4.67,0,7,M,44,PGG100
32,1,4.67,2,7,M,21,PGG100
33,0,4.67,0,7,#N/A,#N/A,PGG100
34,1,4.67,0,7,M,29,PGG100
35,1,4.67,6,7,F,27,PGG100
36,1,4.67,10,7,F,31,PGG100
37,1,4.67,6,7,F,26,PGG100
38,1,4.67,0,7,M,20,PGG100
39,1,4.67,3,7,F,22,PGG100
40,1,4.67,4,7,F,21,PGG100
41,1,4.67,10,7,M,31,PGG100
42,1,4.67,6,7,#N/A,#N/A,PGG100
43,0,4.67,0,7,#N/A,#N/A,PGG100
44,1,4.67,4,7,F,23,PGG100
45,1,4.67,6,7,M,22,PGG100
46,0,4.67,0,7,#N/A,#N/A,PGG100
47,1,4.67,2,7,M,41,PGG100
48,1,4.67,6,7,F,20,PGG100
49,1,4.67,2,7,F,52,PGG100
50,1,4.67,4,7,M,22,PGG100
51,1,4.67,8,7,M,27,PGG100
52,1,4.67,6,7,F,26,PGG100
53,1,4.67,6,7,F,26,PGG100
54,1,4.67,2,7,M,37,PGG100
55,0,4.67,0,7,#N/A,#N/A,PGG100
56,1,4.67,4,7,F,28,PGG100
57,1,4.67,10,7,M,38,PGG100
58,1,4.67,6,7,F,26,PGG100
59,1,4.67,4,7,#N/A,#N/A,PGG100
60,1,4.67,0,7,M,22,PGG100
61,1,4.67,4,7,F,42,PGG100
62,1,4.67,4,7,F,23,PGG100
63,0,4.67,0,7,#N/A,#N/A,PGG100
64,1,4.67,0,7,M,35,PGG100
65,1,4.67,10,7,F,29,PGG100
66,1,4.67,0,7,M,23,PGG100
67,1,4.67,6,7,F,24,PGG100
68,1,4.67,2,7,M,25,PGG100
69,1,4.67,0,7,M,22,PGG100
70,1,4.67,0,7,F,22,PGG100
71,1,4.67,6,7,F,32,PGG100
72,1,4.67,8,7,M,34,PGG100
73,1,4.67,4,7,M,25,PGG100
74,1,4.67,6,7,F,24,PGG100
75,1,4.67,6,7,F,30,PGG100
76,1,4.67,4,7,F,28,PGG100
77,1,4.67,10,7,F,42,PGG100
78,1,4.67,10,7,F,22,PGG100
79,1,4.67,6,7,F,25,PGG100
80,1,4.67,6,7,F,25,PGG100
81,1,4.67,0,7,F,43,PGG100
82,1,4.67,4,7,F,22,PGG100
83,1,4.67,0,7,F,31,PGG100
84,1,4.67,8,7,F,27,PGG100
85,1,4.67,8,7,F,20,PGG100
86,1,4.67,4,7,F,25,PGG100
87,1,4.67,4,7,M,22,PGG100
88,1,4.67,6,7,M,32,PGG100
89,1,4.67,6,7,M,32,PGG100
90,1,4.67,2,7,M,22,PGG100
91,1,4.67,8,7,M,23,PGG100
92,1,4.67,6,7,M,29,PGG100
93,1,4.67,4,7,F,22,PGG100
94,1,4.67,10,7,M,24,PGG100
95,0,4.67,0,7,#N/A,#N/A,PGG100
96,1,4.67,6,7,M,35,PGG100
97,1,4.67,4,7,F,22,PGG100
98,1,4.67,0,7,M,31,PGG100
99,0,4.67,0,7,#N/A,#N/A,PGG100
100,1,4.67,8,7,M,33,PGG100
,,,,,,,
1,1,4.6,4,8,F,32,PGG100
2,1,4.6,8,8,M,19,PGG100
3,1,4.6,4,8,M,32,PGG100
4,1,4.6,0,8,M,20,PGG100
5,0,4.6,0,8,#N/A,#N/A,PGG100
6,1,4.6,0,8,M,21,PGG100
7,0,4.6,0,8,#N/A,#N/A,PGG100
8,1,4.6,10,8,M,31,PGG100
9,1,4.6,6,8,M,26,PGG100
10,1,4.6,6,8,F,43,PGG100
11,1,4.6,4,8,F,26,PGG100
12,0,4.6,0,8,#N/A,#N/A,PGG100
13,1,4.6,0,8,M,20,PGG100
14,1,4.6,6,8,F,41,PGG100
15,1,4.6,10,8,M,24,PGG100
16,1,4.6,8,8,F,25,PGG100
17,1,4.6,4,8,F,32,PGG100
18,1,4.6,8,8,F,30,PGG100
19,1,4.6,4,8,M,42,PGG100
20,1,4.6,6,8,F,36,PGG100
21,1,4.6,4,8,F,21,PGG100
22,1,4.6,0,8,M,23,PGG100
23,1,4.6,10,8,M,24,PGG100
24,1,4.6,2,8,F,27,PGG100
25,1,4.6,8,8,F,37,PGG100
26,1,4.6,0,8,F,27,PGG100
27,1,4.6,2,8,F,27,PGG100
28,1,4.6,6,8,F,27,PGG100
29,1,4.6,4,8,F,20,PGG100
30,1,4.6,4,8,F,21,PGG100
31,1,4.6,0,8,M,44,PGG100
32,1,4.6,4,8,M,21,PGG100
33,0,4.6,0,8,#N/A,#N/A,PGG100
34,1,4.6,0,8,M,29,PGG100
35,1,4.6,6,8,F,27,PGG100
36,1,4.6,10,8,F,31,PGG100
37,1,4.6,8,8,F,26,PGG100
38,1,4.6,6,8,M,20,PGG100
39,1,4.6,2,8,F,22,PGG100
40,1,4.6,6,8,F,21,PGG100
41,1,4.6,10,8,M,31,PGG100
42,1,4.6,6,8,#N/A,#N/A,PGG100
43,0,4.6,0,8,#N/A,#N/A,PGG100
44,1,4.6,10,8,F,23,PGG100
45,1,4.6,6,8,M,22,PGG100
46,0,4.6,0,8,#N/A,#N/A,PGG100
47,1,4.6,4,8,M,41,PGG100
48,1,4.6,4,8,F,20,PGG100
49,1,4.6,2,8,F,52,PGG100
50,1,4.6,2,8,M,22,PGG100
51,1,4.6,0,8,M,27,PGG100
52,1,4.6,2,8,F,26,PGG100
53,1,4.6,6,8,F,26,PGG100
54,1,4.6,8,8,M,37,PGG100
55,0,4.6,0,8,#N/A,#N/A,PGG100
56,1,4.6,4,8,F,28,PGG100
57,1,4.6,10,8,M,38,PGG100
58,1,4.6,8,8,F,26,PGG100
59,1,4.6,6,8,#N/A,#N/A,PGG100
60,1,4.6,0,8,M,22,PGG100
61,1,4.6,2,8,F,42,PGG100
62,1,4.6,2,8,F,23,PGG100
63,0,4.6,0,8,#N/A,#N/A,PGG100
64,1,4.6,0,8,M,35,PGG100
65,1,4.6,10,8,F,29,PGG100
66,1,4.6,0,8,M,23,PGG100
67,1,4.6,4,8,F,24,PGG100
68,1,4.6,4,8,M,25,PGG100
69,1,4.6,2,8,M,22,PGG100
70,1,4.6,2,8,F,22,PGG100
71,1,4.6,6,8,F,32,PGG100
72,1,4.6,8,8,M,34,PGG100
73,1,4.6,6,8,M,25,PGG100
74,1,4.6,6,8,F,24,PGG100
75,1,4.6,6,8,F,30,PGG100
76,1,4.6,6,8,F,28,PGG100
77,1,4.6,10,8,F,42,PGG100
78,1,4.6,0,8,F,22,PGG100
79,1,4.6,4,8,F,25,PGG100
80,1,4.6,4,8,F,25,PGG100
81,1,4.6,0,8,F,43,PGG100
82,1,4.6,6,8,F,22,PGG100
83,1,4.6,0,8,F,31,PGG100
84,1,4.6,6,8,F,27,PGG100
85,1,4.6,6,8,F,20,PGG100
86,1,4.6,6,8,F,25,PGG100
87,1,4.6,2,8,M,22,PGG100
88,1,4.6,4,8,M,32,PGG100
89,1,4.6,2,8,M,32,PGG100
90,1,4.6,4,8,M,22,PGG100
91,1,4.6,10,8,M,23,PGG100
92,1,4.6,8,8,M,29,PGG100
93,1,4.6,2,8,F,22,PGG100
94,1,4.6,0,8,M,24,PGG100
95,0,4.6,0,8,#N/A,#N/A,PGG100
96,1,4.6,4,8,M,35,PGG100
97,1,4.6,6,8,F,22,PGG100
98,1,4.6,0,8,M,31,PGG100
99,0,4.6,0,8,#N/A,#N/A,PGG100
100,1,4.6,8,8,M,33,PGG100
,,,,,,,
1,1,4.34,4,9,F,32,PGG100
2,1,4.34,6,9,M,19,PGG100
3,1,4.34,4,9,M,32,PGG100
4,1,4.34,8,9,M,20,PGG100
5,0,4.34,0,9,#N/A,#N/A,PGG100
6,1,4.34,0,9,M,21,PGG100
7,0,4.34,0,9,#N/A,#N/A,PGG100
8,1,4.34,10,9,M,31,PGG100
9,1,4.34,0,9,M,26,PGG100
10,1,4.34,10,9,F,43,PGG100
11,1,4.34,10,9,F,26,PGG100
12,0,4.34,0,9,#N/A,#N/A,PGG100
13,1,4.34,0,9,M,20,PGG100
14,1,4.34,6,9,F,41,PGG100
15,1,4.34,10,9,M,24,PGG100
16,1,4.34,8,9,F,25,PGG100
17,1,4.34,2,9,F,32,PGG100
18,1,4.34,6,9,F,30,PGG100
19,1,4.34,4,9,M,42,PGG100
20,1,4.34,8,9,F,36,PGG100
21,1,4.34,2,9,F,21,PGG100
22,1,4.34,0,9,M,23,PGG100
23,1,4.34,10,9,M,24,PGG100
24,1,4.34,6,9,F,27,PGG100
25,1,4.34,10,9,F,37,PGG100
26,1,4.34,0,9,F,27,PGG100
27,1,4.34,4,9,F,27,PGG100
28,1,4.34,0,9,F,27,PGG100
29,1,4.34,6,9,F,20,PGG100
30,1,4.34,4,9,F,21,PGG100
31,1,4.34,2,9,M,44,PGG100
32,1,4.34,4,9,M,21,PGG100
33,0,4.34,0,9,#N/A,#N/A,PGG100
34,1,4.34,0,9,M,29,PGG100
35,1,4.34,8,9,F,27,PGG100
36,1,4.34,10,9,F,31,PGG100
37,1,4.34,6,9,F,26,PGG100
38,1,4.34,2,9,M,20,PGG100
39,1,4.34,4,9,F,22,PGG100
40,1,4.34,4,9,F,21,PGG100
41,1,4.34,10,9,M,31,PGG100
42,1,4.34,7,9,#N/A,#N/A,PGG100
43,0,4.34,0,9,#N/A,#N/A,PGG100
44,1,4.34,8,9,F,23,PGG100
45,1,4.34,0,9,M,22,PGG100
46,0,4.34,0,9,#N/A,#N/A,PGG100
47,1,4.34,0,9,M,41,PGG100
48,1,4.34,4,9,F,20,PGG100
49,1,4.34,2,9,F,52,PGG100
50,1,4.34,2,9,M,22,PGG100
51,1,4.34,0,9,M,27,PGG100
52,1,4.34,6,9,F,26,PGG100
53,1,4.34,2,9,F,26,PGG100
54,1,4.34,2,9,M,37,PGG100
55,0,4.34,0,9,#N/A,#N/A,PGG100
56,1,4.34,6,9,F,28,PGG100
57,1,4.34,10,9,M,38,PGG100
58,1,4.34,2,9,F,26,PGG100
59,0,4.34,5,9,#N/A,#N/A,PGG100
60,1,4.34,0,9,M,22,PGG100
61,1,4.34,2,9,F,42,PGG100
62,1,4.34,4,9,F,23,PGG100
63,0,4.34,0,9,#N/A,#N/A,PGG100
64,1,4.34,0,9,M,35,PGG100
65,1,4.34,10,9,F,29,PGG100
66,1,4.34,0,9,M,23,PGG100
67,1,4.34,4,9,F,24,PGG100
68,1,4.34,0,9,M,25,PGG100
69,1,4.34,4,9,M,22,PGG100
70,1,4.34,4,9,F,22,PGG100
71,1,4.34,4,9,F,32,PGG100
72,1,4.34,8,9,M,34,PGG100
73,1,4.34,4,9,M,25,PGG100
74,1,4.34,6,9,F,24,PGG100
75,1,4.34,6,9,F,30,PGG100
76,1,4.34,4,9,F,28,PGG100
77,1,4.34,10,9,F,42,PGG100
78,1,4.34,2,9,F,22,PGG100
79,1,4.34,4,9,F,25,PGG100
80,1,4.34,4,9,F,25,PGG100
81,1,4.34,0,9,F,43,PGG100
82,1,4.34,5,9,F,22,PGG100
83,1,4.34,0,9,F,31,PGG100
84,1,4.34,4,9,F,27,PGG100
85,1,4.34,8,9,F,20,PGG100
86,1,4.34,2,9,F,25,PGG100
87,1,4.34,10,9,M,22,PGG100
88,1,4.34,4,9,M,32,PGG100
89,1,4.34,2,9,M,32,PGG100
90,1,4.34,6,9,M,22,PGG100
91,1,4.34,6,9,M,23,PGG100
92,1,4.34,2,9,M,29,PGG100
93,1,4.34,2,9,F,22,PGG100
94,1,4.34,0,9,M,24,PGG100
95,0,4.34,0,9,#N/A,#N/A,PGG100
96,1,4.34,4,9,M,35,PGG100
97,1,4.34,4,9,F,22,PGG100
98,1,4.34,0,9,M,31,PGG100
99,0,4.34,0,9,#N/A,#N/A,PGG100
100,1,4.34,8,9,M,33,PGG100
,,,,,,,
1,1,4.32,4,10,F,32,PGG100
2,1,4.32,8,10,M,19,PGG100
3,1,4.32,4,10,M,32,PGG100
4,1,4.32,8,10,M,20,PGG100
5,0,4.32,0,10,#N/A,#N/A,PGG100
6,1,4.32,0,10,M,21,PGG100
7,0,4.32,0,10,#N/A,#N/A,PGG100
8,1,4.32,10,10,M,31,PGG100
9,1,4.32,6,10,M,26,PGG100
10,1,4.32,0,10,F,43,PGG100
11,1,4.32,2,10,F,26,PGG100
12,0,4.32,0,10,#N/A,#N/A,PGG100
13,1,4.32,0,10,M,20,PGG100
14,1,4.32,4,10,F,41,PGG100
15,1,4.32,10,10,M,24,PGG100
16,1,4.32,8,10,F,25,PGG100
17,1,4.32,4,10,F,32,PGG100
18,1,4.32,6,10,F,30,PGG100
19,1,4.32,6,10,M,42,PGG100
20,1,4.32,2,10,F,36,PGG100
21,1,4.32,4,10,F,21,PGG100
22,1,4.32,0,10,M,23,PGG100
23,1,4.32,10,10,M,24,PGG100
24,1,4.32,6,10,F,27,PGG100
25,1,4.32,10,10,F,37,PGG100
26,1,4.32,0,10,F,27,PGG100
27,1,4.32,5,10,F,27,PGG100
28,1,4.32,2,10,F,27,PGG100
29,1,4.32,4,10,F,20,PGG100
30,1,4.32,4,10,F,21,PGG100
31,1,4.32,6,10,M,44,PGG100
32,1,4.32,4,10,M,21,PGG100
33,0,4.32,0,10,#N/A,#N/A,PGG100
34,1,4.32,0,10,M,29,PGG100
35,1,4.32,7,10,F,27,PGG100
36,1,4.32,10,10,F,31,PGG100
37,1,4.32,6,10,F,26,PGG100
38,1,4.32,4,10,M,20,PGG100
39,1,4.32,0,10,F,22,PGG100
40,1,4.32,4,10,F,21,PGG100
41,1,4.32,10,10,M,31,PGG100
42,0,4.32,8,10,#N/A,#N/A,PGG100
43,0,4.32,0,10,#N/A,#N/A,PGG100
44,1,4.32,6,10,F,23,PGG100
45,1,4.32,2,10,M,22,PGG100
46,0,4.32,0,10,#N/A,#N/A,PGG100
47,1,4.32,4,10,M,41,PGG100
48,1,4.32,4,10,F,20,PGG100
49,1,4.32,2,10,F,52,PGG100
50,1,4.32,4,10,M,22,PGG100
51,1,4.32,4,10,M,27,PGG100
52,1,4.32,0,10,F,26,PGG100
53,1,4.32,6,10,F,26,PGG100
54,1,4.32,0,10,M,37,PGG100
55,0,4.32,0,10,#N/A,#N/A,PGG100
56,1,4.32,0,10,F,28,PGG100
57,1,4.32,10,10,M,38,PGG100
58,1,4.32,4,10,F,26,PGG100
59,0,4.32,0,10,#N/A,#N/A,PGG100
60,1,4.32,0,10,M,22,PGG100
61,1,4.32,2,10,F,42,PGG100
62,1,4.32,4,10,F,23,PGG100
63,0,4.32,0,10,#N/A,#N/A,PGG100
64,1,4.32,0,10,M,35,PGG100
65,1,4.32,9,10,F,29,PGG100
66,1,4.32,0,10,M,23,PGG100
67,1,4.32,4,10,F,24,PGG100
68,1,4.32,4,10,M,25,PGG100
69,1,4.32,0,10,M,22,PGG100
70,1,4.32,10,10,F,22,PGG100
71,1,4.32,4,10,F,32,PGG100
72,1,4.32,8,10,M,34,PGG100
73,1,4.32,4,10,M,25,PGG100
74,1,4.32,6,10,F,24,PGG100
75,1,4.32,10,10,F,30,PGG100
76,1,4.32,4,10,F,28,PGG100
77,1,4.32,10,10,F,42,PGG100
78,1,4.32,6,10,F,22,PGG100
79,1,4.32,4,10,F,25,PGG100
80,1,4.32,4,10,F,25,PGG100
81,1,4.32,0,10,F,43,PGG100
82,1,4.32,4,10,F,22,PGG100
83,1,4.32,0,10,F,31,PGG100
84,1,4.32,6,10,F,27,PGG100
85,1,4.32,8,10,F,20,PGG100
86,1,4.32,4,10,F,25,PGG100
87,1,4.32,0,10,M,22,PGG100
88,1,4.32,0,10,M,32,PGG100
89,1,4.32,2,10,M,32,PGG100
90,1,4.32,4,10,M,22,PGG100
91,1,4.32,5,10,M,23,PGG100
92,1,4.32,4,10,M,29,PGG100
93,1,4.32,2,10,F,22,PGG100
94,1,4.32,6,10,M,24,PGG100
95,0,4.32,0,10,#N/A,#N/A,PGG100
96,1,4.32,6,10,M,35,PGG100
97,1,4.32,6,10,F,22,PGG100
98,1,4.32,0,10,M,31,PGG100
99,0,4.32,0,10,#N/A,#N/A,PGG100
100,1,4.32,6,10,M,33,PGG100
,,,,,,,
1,1,4.35,4,11,F,32,PGG100
2,1,4.35,8,11,M,19,PGG100
3,1,4.35,4,11,M,32,PGG100
4,1,4.35,8,11,M,20,PGG100
5,0,4.35,0,11,#N/A,#N/A,PGG100
6,1,4.35,0,11,M,21,PGG100
7,0,4.35,0,11,#N/A,#N/A,PGG100
8,1,4.35,10,11,M,31,PGG100
9,1,4.35,0,11,M,26,PGG100
10,1,4.35,2,11,F,43,PGG100
11,1,4.35,4,11,F,26,PGG100
12,0,4.35,0,11,#N/A,#N/A,PGG100
13,1,4.35,0,11,M,20,PGG100
14,1,4.35,4,11,F,41,PGG100
15,1,4.35,10,11,M,24,PGG100
16,1,4.35,8,11,F,25,PGG100
17,1,4.35,4,11,F,32,PGG100
18,1,4.35,8,11,F,30,PGG100
19,1,4.35,2,11,M,42,PGG100
20,1,4.35,6,11,F,36,PGG100
21,1,4.35,4,11,F,21,PGG100
22,1,4.35,0,11,M,23,PGG100
23,1,4.35,10,11,M,24,PGG100
24,1,4.35,8,11,F,27,PGG100
25,1,4.35,10,11,F,37,PGG100
26,1,4.35,0,11,F,27,PGG100
27,1,4.35,4,11,F,27,PGG100
28,1,4.35,4,11,F,27,PGG100
29,1,4.35,4,11,F,20,PGG100
30,1,4.35,4,11,F,21,PGG100
31,1,4.35,4,11,M,44,PGG100
32,1,4.35,4,11,M,21,PGG100
33,0,4.35,0,11,#N/A,#N/A,PGG100
34,1,4.35,2,11,M,29,PGG100
35,1,4.35,6,11,F,27,PGG100
36,1,4.35,10,11,F,31,PGG100
37,1,4.35,6,11,F,26,PGG100
38,1,4.35,4,11,M,20,PGG100
39,1,4.35,0,11,F,22,PGG100
40,1,4.35,6,11,F,21,PGG100
41,1,4.35,10,11,M,31,PGG100
42,0,4.35,0,11,#N/A,#N/A,PGG100
43,0,4.35,0,11,#N/A,#N/A,PGG100
44,1,4.35,6,11,F,23,PGG100
45,1,4.35,0,11,M,22,PGG100
46,0,4.35,0,11,#N/A,#N/A,PGG100
47,1,4.35,4,11,M,41,PGG100
48,1,4.35,6,11,F,20,PGG100
49,1,4.35,2,11,F,52,PGG100
50,1,4.35,6,11,M,22,PGG100
51,1,4.35,2,11,M,27,PGG100
52,1,4.35,4,11,F,26,PGG100
53,1,4.35,4,11,F,26,PGG100
54,1,4.35,2,11,M,37,PGG100
55,0,4.35,0,11,#N/A,#N/A,PGG100
56,1,4.35,2,11,F,28,PGG100
57,1,4.35,10,11,M,38,PGG100
58,1,4.35,6,11,F,26,PGG100
59,0,4.35,0,11,#N/A,#N/A,PGG100
60,1,4.35,0,11,M,22,PGG100
61,1,4.35,2,11,F,42,PGG100
62,1,4.35,4,11,F,23,PGG100
63,0,4.35,0,11,#N/A,#N/A,PGG100
64,1,4.35,0,11,M,35,PGG100
65,1,4.35,10,11,F,29,PGG100
66,1,4.35,0,11,M,23,PGG100
67,1,4.35,6,11,F,24,PGG100
68,1,4.35,4,11,M,25,PGG100
69,1,4.35,0,11,M,22,PGG100
70,1,4.35,0,11,F,22,PGG100
71,1,4.35,6,11,F,32,PGG100
72,1,4.35,7,11,M,34,PGG100
73,1,4.35,4,11,M,25,PGG100
74,1,4.35,6,11,F,24,PGG100
75,1,4.35,6,11,F,30,PGG100
76,1,4.35,4,11,F,28,PGG100
77,1,4.35,10,11,F,42,PGG100
78,1,4.35,2,11,F,22,PGG100
79,1,4.35,6,11,F,25,PGG100
80,1,4.35,4,11,F,25,PGG100
81,1,4.35,0,11,F,43,PGG100
82,1,4.35,4,11,F,22,PGG100
83,1,4.35,0,11,F,31,PGG100
84,1,4.35,6,11,F,27,PGG100
85,1,4.35,8,11,F,20,PGG100
86,1,4.35,6,11,F,25,PGG100
87,1,4.35,0,11,M,22,PGG100
88,1,4.35,0,11,M,32,PGG100
89,1,4.35,2,11,M,32,PGG100
90,1,4.35,6,11,M,22,PGG100
91,1,4.35,10,11,M,23,PGG100
92,1,4.35,2,11,M,29,PGG100
93,1,4.35,2,11,F,22,PGG100
94,1,4.35,6,11,M,24,PGG100
95,0,4.35,0,11,#N/A,#N/A,PGG100
96,1,4.35,4,11,M,35,PGG100
97,1,4.35,6,11,F,22,PGG100
98,1,4.35,0,11,M,31,PGG100
99,0,4.35,0,11,#N/A,#N/A,PGG100
100,1,4.35,4,11,M,33,PGG100
,,,,,,,
1,1,4.44,4,12,F,32,PGG100
2,1,4.44,6,12,M,19,PGG100
3,1,4.44,4,12,M,32,PGG100
4,1,4.44,6,12,M,20,PGG100
5,0,4.44,0,12,#N/A,#N/A,PGG100
6,1,4.44,0,12,M,21,PGG100
7,0,4.44,0,12,#N/A,#N/A,PGG100
8,1,4.44,10,12,M,31,PGG100
9,1,4.44,10,12,M,26,PGG100
10,1,4.44,6,12,F,43,PGG100
11,1,4.44,4,12,F,26,PGG100
12,0,4.44,0,12,#N/A,#N/A,PGG100
13,1,4.44,0,12,M,20,PGG100
14,1,4.44,4,12,F,41,PGG100
15,1,4.44,10,12,M,24,PGG100
16,1,4.44,8,12,F,25,PGG100
17,1,4.44,6,12,F,32,PGG100
18,1,4.44,8,12,F,30,PGG100
19,1,4.44,6,12,M,42,PGG100
20,1,4.44,6,12,F,36,PGG100
21,1,4.44,4,12,F,21,PGG100
22,1,4.44,0,12,M,23,PGG100
23,1,4.44,10,12,M,24,PGG100
24,1,4.44,2,12,F,27,PGG100
25,1,4.44,2,12,F,37,PGG100
26,1,4.44,0,12,F,27,PGG100
27,1,4.44,4,12,F,27,PGG100
28,1,4.44,4,12,F,27,PGG100
29,1,4.44,4,12,F,20,PGG100
30,1,4.44,4,12,F,21,PGG100
31,1,4.44,10,12,M,44,PGG100
32,1,4.44,4,12,M,21,PGG100
33,0,4.44,0,12,#N/A,#N/A,PGG100
34,1,4.44,0,12,M,29,PGG100
35,1,4.44,6,12,F,27,PGG100
36,1,4.44,10,12,F,31,PGG100
37,1,4.44,6,12,F,26,PGG100
38,1,4.44,6,12,M,20,PGG100
39,1,4.44,0,12,F,22,PGG100
40,1,4.44,4,12,F,21,PGG100
41,1,4.44,6,12,M,31,PGG100
42,0,4.44,0,12,#N/A,#N/A,PGG100
43,0,4.44,0,12,#N/A,#N/A,PGG100
44,1,4.44,6,12,F,23,PGG100
45,1,4.44,0,12,M,22,PGG100
46,0,4.44,0,12,#N/A,#N/A,PGG100
47,1,4.44,0,12,M,41,PGG100
48,1,4.44,6,12,F,20,PGG100
49,1,4.44,2,12,F,52,PGG100
50,1,4.44,6,12,M,22,PGG100
51,1,4.44,2,12,M,27,PGG100
52,1,4.44,0,12,F,26,PGG100
53,1,4.44,2,12,F,26,PGG100
54,1,4.44,2,12,M,37,PGG100
55,0,4.44,0,12,#N/A,#N/A,PGG100
56,1,4.44,0,12,F,28,PGG100
57,1,4.44,10,12,M,38,PGG100
58,1,4.44,7,12,F,26,PGG100
59,0,4.44,0,12,#N/A,#N/A,PGG100
60,1,4.44,0,12,M,22,PGG100
61,1,4.44,2,12,F,42,PGG100
62,1,4.44,2,12,F,23,PGG100
63,0,4.44,0,12,#N/A,#N/A,PGG100
64,1,4.44,0,12,M,35,PGG100
65,1,4.44,10,12,F,29,PGG100
66,1,4.44,0,12,M,23,PGG100
67,1,4.44,4,12,F,24,PGG100
68,1,4.44,6,12,M,25,PGG100
69,1,4.44,0,12,M,22,PGG100
70,1,4.44,2,12,F,22,PGG100
71,1,4.44,4,12,F,32,PGG100
72,1,4.44,8,12,M,34,PGG100
73,1,4.44,4,12,M,25,PGG100
74,1,4.44,6,12,F,24,PGG100
75,1,4.44,6,12,F,30,PGG100
76,1,4.44,6,12,F,28,PGG100
77,1,4.44,10,12,F,42,PGG100
78,1,4.44,8,12,F,22,PGG100
79,1,4.44,4,12,F,25,PGG100
80,1,4.44,4,12,F,25,PGG100
81,1,4.44,0,12,F,43,PGG100
82,1,4.44,2,12,F,22,PGG100
83,1,4.44,0,12,F,31,PGG100
84,1,4.44,6,12,F,27,PGG100
85,1,4.44,6,12,F,20,PGG100
86,1,4.44,4,12,F,25,PGG100
87,1,4.44,4,12,M,22,PGG100
88,1,4.44,6,12,M,32,PGG100
89,1,4.44,2,12,M,32,PGG100
90,1,4.44,6,12,M,22,PGG100
91,1,4.44,8,12,M,23,PGG100
92,1,4.44,10,12,M,29,PGG100
93,1,4.44,2,12,F,22,PGG100
94,1,4.44,6,12,M,24,PGG100
95,0,4.44,0,12,#N/A,#N/A,PGG100
96,1,4.44,4,12,M,35,PGG100
97,1,4.44,6,12,F,22,PGG100
98,1,4.44,0,12,M,31,PGG100
99,0,4.44,0,12,#N/A,#N/A,PGG100
100,1,4.44,6,12,M,33,PGG100
,,,,,,,
1,1,4.51,4,13,F,32,PGG100
2,1,4.51,8,13,M,19,PGG100
3,1,4.51,6,13,M,32,PGG100
4,1,4.51,8,13,M,20,PGG100
5,0,4.51,0,13,#N/A,#N/A,PGG100
6,1,4.51,0,13,M,21,PGG100
7,0,4.51,0,13,#N/A,#N/A,PGG100
8,1,4.51,10,13,M,31,PGG100
9,1,4.51,4,13,M,26,PGG100
10,1,4.51,6,13,F,43,PGG100
11,1,4.51,2,13,F,26,PGG100
12,0,4.51,0,13,#N/A,#N/A,PGG100
13,1,4.51,0,13,M,20,PGG100
14,1,4.51,4,13,F,41,PGG100
15,1,4.51,10,13,M,24,PGG100
16,1,4.51,8,13,F,25,PGG100
17,1,4.51,6,13,F,32,PGG100
18,1,4.51,8,13,F,30,PGG100
19,1,4.51,4,13,M,42,PGG100
20,1,4.51,6,13,F,36,PGG100
21,1,4.51,2,13,F,21,PGG100
22,1,4.51,1,13,M,23,PGG100
23,1,4.51,10,13,M,24,PGG100
24,1,4.51,4,13,F,27,PGG100
25,1,4.51,2,13,F,37,PGG100
26,1,4.51,0,13,F,27,PGG100
27,1,4.51,4,13,F,27,PGG100
28,1,4.51,6,13,F,27,PGG100
29,1,4.51,4,13,F,20,PGG100
30,1,4.51,2,13,F,21,PGG100
31,1,4.51,4,13,M,44,PGG100
32,1,4.51,6,13,M,21,PGG100
33,0,4.51,0,13,#N/A,#N/A,PGG100
34,1,4.51,0,13,M,29,PGG100
35,1,4.51,6,13,F,27,PGG100
36,1,4.51,10,13,F,31,PGG100
37,1,4.51,8,13,F,26,PGG100
38,1,4.51,7,13,M,20,PGG100
39,1,4.51,0,13,F,22,PGG100
40,1,4.51,6,13,F,21,PGG100
41,1,4.51,10,13,M,31,PGG100
42,0,4.51,0,13,#N/A,#N/A,PGG100
43,0,4.51,0,13,#N/A,#N/A,PGG100
44,1,4.51,6,13,F,23,PGG100
45,1,4.51,0,13,M,22,PGG100
46,0,4.51,0,13,#N/A,#N/A,PGG100
47,1,4.51,2,13,M,41,PGG100
48,1,4.51,6,13,F,20,PGG100
49,1,4.51,2,13,F,52,PGG100
50,1,4.51,6,13,M,22,PGG100
51,1,4.51,10,13,M,27,PGG100
52,1,4.51,6,13,F,26,PGG100
53,1,4.51,6,13,F,26,PGG100
54,1,4.51,0,13,M,37,PGG100
55,0,4.51,0,13,#N/A,#N/A,PGG100
56,1,4.51,0,13,F,28,PGG100
57,1,4.51,10,13,M,38,PGG100
58,1,4.51,6,13,F,26,PGG100
59,0,4.51,0,13,#N/A,#N/A,PGG100
60,1,4.51,0,13,M,22,PGG100
61,1,4.51,2,13,F,42,PGG100
62,1,4.51,4,13,F,23,PGG100
63,0,4.51,0,13,#N/A,#N/A,PGG100
64,1,4.51,0,13,M,35,PGG100
65,1,4.51,10,13,F,29,PGG100
66,1,4.51,0,13,M,23,PGG100
67,1,4.51,4,13,F,24,PGG100
68,1,4.51,4,13,M,25,PGG100
69,1,4.51,0,13,M,22,PGG100
70,1,4.51,2,13,F,22,PGG100
71,1,4.51,6,13,F,32,PGG100
72,0,4.51,7,13,M,34,PGG100
73,1,4.51,4,13,M,25,PGG100
74,1,4.51,6,13,F,24,PGG100
75,1,4.51,5,13,F,30,PGG100
76,1,4.51,6,13,F,28,PGG100
77,1,4.51,10,13,F,42,PGG100
78,1,4.51,4,13,F,22,PGG100
79,1,4.51,4,13,F,25,PGG100
80,1,4.51,6,13,F,25,PGG100
81,1,4.51,0,13,F,43,PGG100
82,0,4.51,0,13,F,22,PGG100
83,1,4.51,0,13,F,31,PGG100
84,1,4.51,4,13,F,27,PGG100
85,1,4.51,8,13,F,20,PGG100
86,1,4.51,4,13,F,25,PGG100
87,1,4.51,4,13,M,22,PGG100
88,0,4.51,6,13,M,32,PGG100
89,1,4.51,2,13,M,32,PGG100
90,1,4.51,8,13,M,22,PGG100
91,1,4.51,8,13,M,23,PGG100
92,1,4.51,2,13,M,29,PGG100
93,1,4.51,0,13,F,22,PGG100
94,1,4.51,6,13,M,24,PGG100
95,0,4.51,0,13,#N/A,#N/A,PGG100
96,1,4.51,4,13,M,35,PGG100
97,1,4.51,6,13,F,22,PGG100
98,1,4.51,0,13,M,31,PGG100
99,0,4.51,0,13,#N/A,#N/A,PGG100
100,1,4.51,4,13,M,33,PGG100
,,,,,,,
1,1,4.53,4,14,F,32,PGG100
2,1,4.53,8,14,M,19,PGG100
3,1,4.53,6,14,M,32,PGG100
4,1,4.53,6,14,M,20,PGG100
5,0,4.53,0,14,#N/A,#N/A,PGG100
6,1,4.53,0,14,M,21,PGG100
7,0,4.53,0,14,#N/A,#N/A,PGG100
8,1,4.53,10,14,M,31,PGG100
9,1,4.53,4,14,M,26,PGG100
10,1,4.53,6,14,F,43,PGG100
11,1,4.53,2,14,F,26,PGG100
12,0,4.53,0,14,#N/A,#N/A,PGG100
13,1,4.53,0,14,M,20,PGG100
14,1,4.53,6,14,F,41,PGG100
15,1,4.53,10,14,M,24,PGG100
16,1,4.53,8,14,F,25,PGG100
17,1,4.53,6,14,F,32,PGG100
18,1,4.53,4,14,F,30,PGG100
19,1,4.53,4,14,M,42,PGG100
20,1,4.53,6,14,F,36,PGG100
21,1,4.53,4,14,F,21,PGG100
22,1,4.53,0,14,M,23,PGG100
23,1,4.53,10,14,M,24,PGG100
24,1,4.53,6,14,F,27,PGG100
25,1,4.53,10,14,F,37,PGG100
26,1,4.53,0,14,F,27,PGG100
27,1,4.53,4,14,F,27,PGG100
28,1,4.53,6,14,F,27,PGG100
29,1,4.53,6,14,F,20,PGG100
30,1,4.53,4,14,F,21,PGG100
31,1,4.53,0,14,M,44,PGG100
32,1,4.53,6,14,M,21,PGG100
33,0,4.53,0,14,#N/A,#N/A,PGG100
34,1,4.53,2,14,M,29,PGG100
35,1,4.53,6,14,F,27,PGG100
36,1,4.53,10,14,F,31,PGG100
37,1,4.53,6,14,F,26,PGG100
38,1,4.53,4,14,M,20,PGG100
39,1,4.53,0,14,F,22,PGG100
40,1,4.53,6,14,F,21,PGG100
41,1,4.53,10,14,M,31,PGG100
42,0,4.53,0,14,#N/A,#N/A,PGG100
43,0,4.53,0,14,#N/A,#N/A,PGG100
44,1,4.53,6,14,F,23,PGG100
45,1,4.53,0,14,M,22,PGG100
46,0,4.53,0,14,#N/A,#N/A,PGG100
47,1,4.53,4,14,M,41,PGG100
48,1,4.53,6,14,F,20,PGG100
49,1,4.53,6,14,F,52,PGG100
50,1,4.53,4,14,M,22,PGG100
51,1,4.53,2,14,M,27,PGG100
52,1,4.53,0,14,F,26,PGG100
53,1,4.53,6,14,F,26,PGG100
54,1,4.53,2,14,M,37,PGG100
55,0,4.53,0,14,#N/A,#N/A,PGG100
56,1,4.53,2,14,F,28,PGG100
57,1,4.53,10,14,M,38,PGG100
58,1,4.53,5,14,F,26,PGG100
59,0,4.53,0,14,#N/A,#N/A,PGG100
60,1,4.53,0,14,M,22,PGG100
61,1,4.53,4,14,F,42,PGG100
62,1,4.53,4,14,F,23,PGG100
63,0,4.53,0,14,#N/A,#N/A,PGG100
64,1,4.53,0,14,M,35,PGG100
65,1,4.53,10,14,F,29,PGG100
66,1,4.53,0,14,M,23,PGG100
67,1,4.53,4,14,F,24,PGG100
68,1,4.53,4,14,M,25,PGG100
69,1,4.53,0,14,M,22,PGG100
70,1,4.53,4,14,F,22,PGG100
71,1,4.53,6,14,F,32,PGG100
72,0,4.53,0,14,M,34,PGG100
73,1,4.53,4,14,M,25,PGG100
74,1,4.53,6,14,F,24,PGG100
75,1,4.53,6,14,F,30,PGG100
76,1,4.53,6,14,F,28,PGG100
77,1,4.53,10,14,F,42,PGG100
78,1,4.53,8,14,F,22,PGG100
79,1,4.53,6,14,F,25,PGG100
80,1,4.53,2,14,F,25,PGG100
81,1,4.53,0,14,F,43,PGG100
82,0,4.53,0,14,F,22,PGG100
83,1,4.53,0,14,F,31,PGG100
84,1,4.53,6,14,F,27,PGG100
85,1,4.53,6,14,F,20,PGG100
86,1,4.53,4,14,F,25,PGG100
87,1,4.53,0,14,M,22,PGG100
88,0,4.53,0,14,M,32,PGG100
89,1,4.53,2,14,M,32,PGG100
90,1,4.53,4,14,M,22,PGG100
91,1,4.53,10,14,M,23,PGG100
92,1,4.53,4,14,M,29,PGG100
93,1,4.53,4,14,F,22,PGG100
94,1,4.53,6,14,M,24,PGG100
95,0,4.53,0,14,#N/A,#N/A,PGG100
96,1,4.53,4,14,M,35,PGG100
97,1,4.53,4,14,F,22,PGG100
98,1,4.53,0,14,M,31,PGG100
99,0,4.53,0,14,#N/A,#N/A,PGG100
100,1,4.53,4,14,M,33,PGG100
,,,,,,,
1,1,4.53,4,1,M,52,PGG1000
2,1,4.53,0,1,M,34,PGG1000
3,1,4.53,10,1,M,31,PGG1000
4,1,4.53,8,1,F,32,PGG1000
5,1,4.53,4,1,M,66,PGG1000
6,0,4.53,0,1,F,26,PGG1000
7,1,4.53,10,1,M,43,PGG1000
8,1,4.53,6,1,M,20,PGG1000
9,1,4.53,10,1,F,41,PGG1000
10,1,4.53,4,1,F,21,PGG1000
11,1,4.53,0,1,M,40,PGG1000
12,1,4.53,0,1,F,36,PGG1000
13,1,4.53,8,1,M,21,PGG1000
14,1,4.53,6,1,F,20,PGG1000
15,1,4.53,2,1,F,36,PGG1000
16,1,4.53,6,1,F,28,PGG1000
17,0,4.53,1,1,F,28,PGG1000
18,1,4.53,2,1,F,40,PGG1000
19,1,4.53,4,1,F,22,PGG1000
20,1,4.53,4,1,M,29,PGG1000
21,1,4.53,0,1,M,23,PGG1000
22,1,4.53,2,1,F,26,PGG1000
23,1,4.53,2,1,F,21,PGG1000
24,1,4.53,4,1,F,32,PGG1000
25,1,4.53,0,1,F,35,PGG1000
26,1,4.53,2,1,F,33,PGG1000
27,1,4.53,2,1,F,36,PGG1000
28,1,4.53,4,1,F,42,PGG1000
29,1,4.53,4,1,F,28,PGG1000
30,1,4.53,6,1,F,58,PGG1000
31,1,4.53,8,1,M,32,PGG1000
32,1,4.53,2,1,F,29,PGG1000
33,1,4.53,4,1,F,44,PGG1000
34,1,4.53,8,1,F,25,PGG1000
35,1,4.53,4,1,M,24,PGG1000
36,1,4.53,4,1,F,26,PGG1000
37,1,4.53,6,1,M,24,PGG1000
38,1,4.53,0,1,F,23,PGG1000
39,1,4.53,8,1,F,30,PGG1000
40,1,4.53,2,1,M,21,PGG1000
41,1,4.53,2,1,M,30,PGG1000
42,1,4.53,4,1,M,33,PGG1000
43,1,4.53,6,1,M,25,PGG1000
44,1,4.53,4,1,F,39,PGG1000
45,1,4.53,4,1,F,21,PGG1000
46,1,4.53,6,1,M,43,PGG1000
47,1,4.53,4,1,F,32,PGG1000
48,1,4.53,6,1,M,40,PGG1000
49,0,4.53,1,1,F,42,PGG1000
50,1,4.53,6,1,M,23,PGG1000
51,1,4.53,6,1,F,38,PGG1000
52,1,4.53,8,1,F,23,PGG1000
53,1,4.53,4,1,F,30,PGG1000
54,1,4.53,4,1,M,24,PGG1000
55,1,4.53,2,1,F,28,PGG1000
56,1,4.53,10,1,M,36,PGG1000
57,1,4.53,6,1,M,24,PGG1000
58,1,4.53,8,1,F,27,PGG1000
59,1,4.53,4,1,F,23,PGG1000
60,1,4.53,6,1,M,25,PGG1000
61,1,4.53,4,1,F,29,PGG1000
62,1,4.53,4,1,M,20,PGG1000
63,1,4.53,10,1,F,25,PGG1000
64,1,4.53,2,1,M,37,PGG1000
65,1,4.53,4,1,F,28,PGG1000
66,1,4.53,6,1,F,27,PGG1000
67,0,4.53,0,1,M,19,PGG1000
68,1,4.53,4,1,F,25,PGG1000
69,1,4.53,0,1,F,23,PGG1000
70,1,4.53,6,1,F,21,PGG1000
71,1,4.53,4,1,F,19,PGG1000
72,1,4.53,8,1,F,41,PGG1000
73,1,4.53,4,1,F,23,PGG1000
74,1,4.53,4,1,F,24,PGG1000
75,1,4.53,0,1,F,22,PGG1000
76,1,4.53,4,1,M,22,PGG1000
77,1,4.53,2,1,F,28,PGG1000
78,1,4.53,0,1,M,39,PGG1000
79,1,4.53,4,1,F,55,PGG1000
80,1,4.53,2,1,F,37,PGG1000
81,1,4.53,10,1,M,34,PGG1000
82,1,4.53,6,1,F,23,PGG1000
83,1,4.53,6,1,F,24,PGG1000
84,1,4.53,0,1,F,25,PGG1000
85,1,4.53,10,1,M,49,PGG1000
86,1,4.53,4,1,F,37,PGG1000
87,1,4.53,2,1,F,22,PGG1000
88,1,4.53,2,1,M,22,PGG1000
89,1,4.53,6,1,M,21,PGG1000
90,1,4.53,2,1,F,50,PGG1000
91,1,4.53,2,1,F,52,PGG1000
92,1,4.53,2,1,M,38,PGG1000
93,1,4.53,4,1,M,45,PGG1000
94,0,4.53,1,1,F,22,PGG1000
95,1,4.53,2,1,M,26,PGG1000
96,1,4.53,10,1,F,30,PGG1000
97,1,4.53,6,1,M,20,PGG1000
98,1,4.53,6,1,M,22,PGG1000
99,1,4.53,8,1,F,27,PGG1000
100,1,4.53,6,1,F,47,PGG1000
101,1,4.53,4,1,M,26,PGG1000
102,1,4.53,4,1,F,34,PGG1000
103,1,4.53,4,1,M,32,PGG1000
104,1,4.53,2,1,M,20,PGG1000
105,0,4.53,0,1,M,23,PGG1000
106,1,4.53,4,1,F,38,PGG1000
107,1,4.53,4,1,F,25,PGG1000
108,1,4.53,6,1,F,43,PGG1000
109,1,4.53,8,1,M,29,PGG1000
110,1,4.53,4,1,M,20,PGG1000
111,1,4.53,8,1,M,25,PGG1000
112,1,4.53,4,1,F,46,PGG1000
113,1,4.53,6,1,F,22,PGG1000
114,1,4.53,4,1,M,26,PGG1000
115,1,4.53,4,1,M,24,PGG1000
116,1,4.53,6,1,F,26,PGG1000
117,1,4.53,0,1,F,33,PGG1000
118,1,4.53,8,1,F,60,PGG1000
119,1,4.53,4,1,M,43,PGG1000
120,1,4.53,6,1,F,45,PGG1000
121,1,4.53,10,1,F,31,PGG1000
122,1,4.53,6,1,F,39,PGG1000
123,1,4.53,6,1,M,33,PGG1000
124,1,4.53,0,1,M,19,PGG1000
125,1,4.53,0,1,F,20,PGG1000
126,1,4.53,0,1,M,23,PGG1000
127,1,4.53,6,1,F,24,PGG1000
128,1,4.53,2,1,M,21,PGG1000
129,1,4.53,2,1,F,44,PGG1000
130,1,4.53,4,1,F,37,PGG1000
131,1,4.53,2,1,M,35,PGG1000
132,1,4.53,6,1,M,23,PGG1000
133,1,4.53,0,1,M,29,PGG1000
134,1,4.53,4,1,M,55,PGG1000
135,1,4.53,4,1,M,30,PGG1000
136,1,4.53,0,1,M,24,PGG1000
137,1,4.53,2,1,M,42,PGG1000
138,1,4.53,2,1,F,21,PGG1000
139,1,4.53,10,1,M,38,PGG1000
140,1,4.53,6,1,M,27,PGG1000
141,1,4.53,4,1,F,26,PGG1000
142,1,4.53,8,1,M,42,PGG1000
143,1,4.53,2,1,F,49,PGG1000
144,1,4.53,2,1,M,20,PGG1000
145,1,4.53,0,1,F,22,PGG1000
146,1,4.53,2,1,F,31,PGG1000
147,1,4.53,6,1,M,27,PGG1000
148,1,4.53,6,1,F,24,PGG1000
149,1,4.53,6,1,M,37,PGG1000
150,1,4.53,2,1,F,34,PGG1000
151,1,4.53,0,1,M,28,PGG1000
152,1,4.53,4,1,F,28,PGG1000
153,1,4.53,10,1,M,24,PGG1000
154,0,4.53,0,1,#N/A,#N/A,PGG1000
155,1,4.53,8,1,F,23,PGG1000
156,1,4.53,0,1,M,26,PGG1000
157,1,4.53,0,1,F,29,PGG1000
158,1,4.53,2,1,F,21,PGG1000
159,1,4.53,4,1,M,45,PGG1000
160,1,4.53,2,1,F,49,PGG1000
161,1,4.53,4,1,F,29,PGG1000
162,1,4.53,6,1,F,30,PGG1000
163,1,4.53,6,1,M,21,PGG1000
164,0,4.53,1,1,F,38,PGG1000
165,1,4.53,0,1,M,27,PGG1000
166,1,4.53,0,1,M,24,PGG1000
167,1,4.53,10,1,M,25,PGG1000
168,1,4.53,10,1,M,28,PGG1000
169,1,4.53,4,1,F,23,PGG1000
170,1,4.53,4,1,F,25,PGG1000
171,1,4.53,2,1,M,27,PGG1000
172,1,4.53,2,1,F,23,PGG1000
173,1,4.53,2,1,M,21,PGG1000
174,1,4.53,6,1,F,31,PGG1000
175,1,4.53,6,1,F,35,PGG1000
176,1,4.53,0,1,M,37,PGG1000
177,1,4.53,6,1,F,23,PGG1000
178,1,4.53,4,1,M,35,PGG1000
179,1,4.53,10,1,F,25,PGG1000
180,1,4.53,4,1,F,52,PGG1000
181,1,4.53,6,1,F,44,PGG1000
182,0,4.53,0,1,M,39,PGG1000
183,1,4.53,6,1,M,53,PGG1000
184,1,4.53,2,1,M,28,PGG1000
185,1,4.53,6,1,F,27,PGG1000
186,1,4.53,4,1,M,36,PGG1000
187,1,4.53,10,1,M,21,PGG1000
188,1,4.53,6,1,F,24,PGG1000
189,0,4.53,0,1,F,27,PGG1000
190,1,4.53,8,1,F,26,PGG1000
191,1,4.53,2,1,F,25,PGG1000
192,1,4.53,10,1,F,38,PGG1000
193,1,4.53,2,1,F,28,PGG1000
194,1,4.53,4,1,F,36,PGG1000
195,1,4.53,4,1,F,43,PGG1000
196,1,4.53,10,1,F,41,PGG1000
197,1,4.53,2,1,F,36,PGG1000
198,1,4.53,2,1,F,28,PGG1000
199,1,4.53,2,1,F,56,PGG1000
200,1,4.53,6,1,F,21,PGG1000
201,1,4.53,10,1,M,22,PGG1000
202,1,4.53,4,1,F,42,PGG1000
203,1,4.53,4,1,F,25,PGG1000
204,1,4.53,10,1,M,25,PGG1000
205,1,4.53,6,1,F,24,PGG1000
206,1,4.53,6,1,F,44,PGG1000
207,0,4.53,0,1,M,29,PGG1000
208,1,4.53,2,1,F,39,PGG1000
209,1,4.53,8,1,F,33,PGG1000
210,1,4.53,2,1,F,25,PGG1000
211,1,4.53,6,1,F,37,PGG1000
212,0,4.53,1,1,F,26,PGG1000
213,1,4.53,6,1,F,44,PGG1000
214,1,4.53,2,1,F,46,PGG1000
215,0,4.53,1,1,M,27,PGG1000
216,1,4.53,2,1,F,20,PGG1000
217,1,4.53,2,1,F,21,PGG1000
218,1,4.53,10,1,F,20,PGG1000
219,1,4.53,2,1,F,28,PGG1000
220,1,4.53,6,1,F,42,PGG1000
221,1,4.53,6,1,F,27,PGG1000
222,1,4.53,6,1,F,29,PGG1000
223,1,4.53,6,1,F,51,PGG1000
224,1,4.53,4,1,F,25,PGG1000
225,0,4.53,0,1,M,51,PGG1000
226,1,4.53,2,1,F,20,PGG1000
227,1,4.53,6,1,F,22,PGG1000
228,1,4.53,4,1,M,23,PGG1000
229,1,4.53,4,1,M,64,PGG1000
230,1,4.53,4,1,F,22,PGG1000
231,1,4.53,6,1,F,26,PGG1000
232,1,4.53,4,1,M,27,PGG1000
233,1,4.53,6,1,F,29,PGG1000
234,1,4.53,2,1,F,30,PGG1000
235,1,4.53,10,1,F,34,PGG1000
236,1,4.53,2,1,F,26,PGG1000
237,1,4.53,4,1,F,25,PGG1000
238,0,4.53,0,1,F,22,PGG1000
239,1,4.53,4,1,F,38,PGG1000
240,1,4.53,4,1,F,52,PGG1000
241,1,4.53,4,1,F,23,PGG1000
242,1,4.53,4,1,F,42,PGG1000
243,1,4.53,6,1,F,30,PGG1000
244,1,4.53,6,1,F,25,PGG1000
245,1,4.53,4,1,M,40,PGG1000
246,0,4.53,1,1,M,31,PGG1000
247,0,4.53,1,1,F,55,PGG1000
248,1,4.53,10,1,F,25,PGG1000
249,0,4.53,0,1,F,20,PGG1000
250,1,4.53,2,1,F,22,PGG1000
251,1,4.53,8,1,F,23,PGG1000
252,1,4.53,2,1,F,25,PGG1000
253,1,4.53,10,1,M,22,PGG1000
254,1,4.53,10,1,M,20,PGG1000
255,1,4.53,2,1,M,22,PGG1000
256,1,4.53,4,1,M,41,PGG1000
257,1,4.53,2,1,M,45,PGG1000
258,1,4.53,6,1,F,47,PGG1000
259,1,4.53,0,1,M,32,PGG1000
260,1,4.53,4,1,F,35,PGG1000
261,1,4.53,10,1,F,21,PGG1000
262,1,4.53,6,1,F,26,PGG1000
263,1,4.53,2,1,F,28,PGG1000
264,1,4.53,4,1,F,48,PGG1000
265,1,4.53,2,1,F,19,PGG1000
266,1,4.53,2,1,F,25,PGG1000
267,1,4.53,4,1,F,22,PGG1000
268,1,4.53,4,1,M,38,PGG1000
269,1,4.53,2,1,F,30,PGG1000
270,1,4.53,6,1,F,23,PGG1000
271,1,4.53,4,1,F,62,PGG1000
272,1,4.53,0,1,M,21,PGG1000
273,1,4.53,6,1,F,23,PGG1000
274,1,4.53,2,1,M,28,PGG1000
275,1,4.53,0,1,M,22,PGG1000
276,0,4.53,0,1,M,21,PGG1000
277,1,4.53,6,1,F,26,PGG1000
278,1,4.53,8,1,M,27,PGG1000
279,1,4.53,4,1,F,41,PGG1000
280,1,4.53,4,1,F,24,PGG1000
281,1,4.53,6,1,M,25,PGG1000
282,1,4.53,2,1,F,28,PGG1000
283,1,4.53,4,1,F,48,PGG1000
284,1,4.53,2,1,M,20,PGG1000
285,1,4.53,2,1,M,44,PGG1000
286,1,4.53,2,1,M,22,PGG1000
287,1,4.53,10,1,F,21,PGG1000
288,1,4.53,4,1,F,20,PGG1000
289,1,4.53,0,1,F,23,PGG1000
290,1,4.53,4,1,M,21,PGG1000
291,1,4.53,0,1,M,32,PGG1000
292,1,4.53,10,1,M,48,PGG1000
293,1,4.53,10,1,M,41,PGG1000
294,1,4.53,6,1,M,36,PGG1000
295,1,4.53,4,1,F,21,PGG1000
296,1,4.53,4,1,F,41,PGG1000
297,1,4.53,10,1,M,27,PGG1000
298,1,4.53,0,1,M,21,PGG1000
299,1,4.53,4,1,F,23,PGG1000
300,1,4.53,0,1,F,36,PGG1000
301,1,4.53,6,1,F,44,PGG1000
302,1,4.53,8,1,F,51,PGG1000
303,1,4.53,8,1,M,30,PGG1000
304,1,4.53,10,1,M,23,PGG1000
305,1,4.53,8,1,M,42,PGG1000
306,1,4.53,2,1,F,26,PGG1000
307,1,4.53,0,1,M,24,PGG1000
308,1,4.53,4,1,F,22,PGG1000
309,1,4.53,6,1,F,30,PGG1000
310,1,4.53,4,1,M,43,PGG1000
311,1,4.53,4,1,F,51,PGG1000
312,1,4.53,4,1,F,25,PGG1000
313,1,4.53,4,1,M,31,PGG1000
314,1,4.53,6,1,M,27,PGG1000
315,1,4.53,4,1,M,22,PGG1000
316,1,4.53,4,1,M,24,PGG1000
317,1,4.53,0,1,M,22,PGG1000
318,1,4.53,6,1,F,32,PGG1000
319,1,4.53,8,1,M,46,PGG1000
320,1,4.53,0,1,M,23,PGG1000
321,1,4.53,4,1,M,27,PGG1000
322,1,4.53,10,1,M,36,PGG1000
323,1,4.53,4,1,F,26,PGG1000
324,1,4.53,4,1,F,35,PGG1000
325,0,4.53,0,1,M,33,PGG1000
326,1,4.53,6,1,M,33,PGG1000
327,1,4.53,4,1,M,47,PGG1000
328,1,4.53,4,1,F,36,PGG1000
329,1,4.53,2,1,F,35,PGG1000
330,1,4.53,8,1,F,23,PGG1000
331,1,4.53,4,1,F,28,PGG1000
332,1,4.53,4,1,M,41,PGG1000
333,1,4.53,4,1,F,42,PGG1000
334,1,4.53,4,1,F,25,PGG1000
335,1,4.53,4,1,F,46,PGG1000
336,1,4.53,4,1,F,39,PGG1000
337,1,4.53,0,1,F,23,PGG1000
338,1,4.53,6,1,F,46,PGG1000
339,1,4.53,4,1,F,38,PGG1000
340,1,4.53,2,1,F,28,PGG1000
341,1,4.53,2,1,F,38,PGG1000
342,1,4.53,2,1,F,28,PGG1000
343,1,4.53,6,1,M,46,PGG1000
344,1,4.53,6,1,M,33,PGG1000
345,1,4.53,2,1,F,29,PGG1000
346,1,4.53,4,1,F,24,PGG1000
347,1,4.53,10,1,M,29,PGG1000
348,0,4.53,0,1,M,21,PGG1000
349,1,4.53,4,1,M,24,PGG1000
350,1,4.53,10,1,F,49,PGG1000
351,1,4.53,8,1,M,49,PGG1000
352,1,4.53,6,1,F,36,PGG1000
353,1,4.53,8,1,M,33,PGG1000
354,1,4.53,4,1,F,20,PGG1000
355,1,4.53,6,1,F,23,PGG1000
356,1,4.53,0,1,M,20,PGG1000
357,1,4.53,6,1,F,28,PGG1000
358,1,4.53,6,1,M,50,PGG1000
359,1,4.53,10,1,M,46,PGG1000
360,1,4.53,4,1,M,26,PGG1000
361,1,4.53,10,1,M,21,PGG1000
362,1,4.53,4,1,F,24,PGG1000
363,1,4.53,6,1,M,19,PGG1000
364,1,4.53,2,1,F,32,PGG1000
365,1,4.53,4,1,F,43,PGG1000
366,1,4.53,4,1,F,48,PGG1000
367,1,4.53,4,1,F,49,PGG1000
368,1,4.53,4,1,F,40,PGG1000
369,1,4.53,6,1,F,30,PGG1000
370,1,4.53,10,1,M,24,PGG1000
371,0,4.53,0,1,M,52,PGG1000
372,1,4.53,2,1,F,34,PGG1000
373,1,4.53,4,1,M,23,PGG1000
374,1,4.53,0,1,F,27,PGG1000
375,1,4.53,6,1,F,19,PGG1000
376,1,4.53,8,1,M,29,PGG1000
377,1,4.53,2,1,M,22,PGG1000
378,1,4.53,10,1,M,24,PGG1000
379,1,4.53,0,1,M,21,PGG1000
380,1,4.53,4,1,M,60,PGG1000
381,1,4.53,2,1,F,41,PGG1000
382,1,4.53,2,1,F,26,PGG1000
383,1,4.53,2,1,M,31,PGG1000
384,1,4.53,10,1,F,44,PGG1000
385,1,4.53,4,1,F,24,PGG1000
386,1,4.53,8,1,M,33,PGG1000
387,1,4.53,4,1,F,19,PGG1000
388,1,4.53,4,1,F,22,PGG1000
389,1,4.53,4,1,F,22,PGG1000
390,1,4.53,2,1,F,23,PGG1000
391,1,4.53,4,1,M,23,PGG1000
392,1,4.53,4,1,M,27,PGG1000
393,0,4.53,0,1,M,59,PGG1000
394,1,4.53,0,1,F,25,PGG1000
395,1,4.53,6,1,F,52,PGG1000
396,1,4.53,4,1,F,40,PGG1000
397,1,4.53,10,1,M,34,PGG1000
398,1,4.53,4,1,F,24,PGG1000
399,1,4.53,4,1,F,23,PGG1000
400,0,4.53,0,1,F,22,PGG1000
401,0,4.53,0,1,F,29,PGG1000
402,1,4.53,2,1,F,48,PGG1000
403,1,4.53,6,1,F,28,PGG1000
404,1,4.53,4,1,M,21,PGG1000
405,1,4.53,8,1,#N/A,#N/A,PGG1000
406,1,4.53,8,1,F,27,PGG1000
407,1,4.53,6,1,F,43,PGG1000
408,1,4.53,4,1,F,30,PGG1000
409,1,4.53,10,1,M,32,PGG1000
410,1,4.53,4,1,F,52,PGG1000
411,1,4.53,4,1,F,23,PGG1000
412,1,4.53,6,1,F,23,PGG1000
413,0,4.53,0,1,M,23,PGG1000
414,1,4.53,4,1,M,25,PGG1000
415,1,4.53,2,1,M,29,PGG1000
416,1,4.53,4,1,F,26,PGG1000
417,1,4.53,4,1,F,46,PGG1000
418,1,4.53,4,1,F,37,PGG1000
419,1,4.53,4,1,F,22,PGG1000
420,1,4.53,2,1,F,30,PGG1000
421,1,4.53,4,1,M,39,PGG1000
422,1,4.53,2,1,F,44,PGG1000
423,1,4.53,10,1,F,26,PGG1000
424,1,4.53,8,1,M,20,PGG1000
425,1,4.53,4,1,M,21,PGG1000
426,1,4.53,0,1,F,23,PGG1000
427,1,4.53,4,1,F,21,PGG1000
428,1,4.53,4,1,F,23,PGG1000
429,1,4.53,4,1,F,19,PGG1000
430,1,4.53,2,1,F,42,PGG1000
431,1,4.53,0,1,M,26,PGG1000
432,1,4.53,6,1,F,35,PGG1000
433,1,4.53,4,1,F,43,PGG1000
434,1,4.53,6,1,F,22,PGG1000
435,1,4.53,4,1,F,34,PGG1000
436,1,4.53,4,1,F,21,PGG1000
437,1,4.53,10,1,F,29,PGG1000
438,1,4.53,4,1,M,30,PGG1000
439,1,4.53,10,1,F,47,PGG1000
440,1,4.53,0,1,M,21,PGG1000
441,1,4.53,0,1,M,23,PGG1000
442,1,4.53,4,1,M,20,PGG1000
443,1,4.53,2,1,F,52,PGG1000
444,1,4.53,6,1,F,24,PGG1000
445,1,4.53,4,1,F,23,PGG1000
446,1,4.53,4,1,M,23,PGG1000
447,1,4.53,10,1,M,22,PGG1000
448,1,4.53,4,1,F,26,PGG1000
449,1,4.53,2,1,M,20,PGG1000
450,1,4.53,2,1,F,23,PGG1000
451,0,4.53,1,1,M,41,PGG1000
452,1,4.53,4,1,M,35,PGG1000
453,1,4.53,10,1,M,21,PGG1000
454,1,4.53,2,1,M,21,PGG1000
455,1,4.53,6,1,M,32,PGG1000
456,1,4.53,4,1,M,20,PGG1000
457,1,4.53,4,1,F,26,PGG1000
458,1,4.53,4,1,F,25,PGG1000
459,1,4.53,8,1,M,24,PGG1000
460,1,4.53,6,1,M,27,PGG1000
461,1,4.53,4,1,F,20,PGG1000
462,1,4.53,4,1,M,52,PGG1000
463,1,4.53,4,1,M,31,PGG1000
464,1,4.53,8,1,F,23,PGG1000
465,0,4.53,0,1,F,22,PGG1000
466,1,4.53,6,1,M,22,PGG1000
467,1,4.53,4,1,F,49,PGG1000
468,1,4.53,6,1,F,32,PGG1000
469,1,4.53,4,1,F,26,PGG1000
470,1,4.53,4,1,F,31,PGG1000
471,1,4.53,10,1,M,34,PGG1000
472,1,4.53,4,1,F,29,PGG1000
473,1,4.53,6,1,F,44,PGG1000
474,1,4.53,4,1,F,36,PGG1000
475,1,4.53,0,1,F,25,PGG1000
476,1,4.53,10,1,M,41,PGG1000
477,0,4.53,0,1,F,24,PGG1000
478,1,4.53,2,1,F,25,PGG1000
479,1,4.53,4,1,F,20,PGG1000
480,1,4.53,10,1,M,46,PGG1000
481,0,4.53,1,1,M,24,PGG1000
482,1,4.53,4,1,F,23,PGG1000
483,1,4.53,8,1,F,29,PGG1000
484,1,4.53,4,1,F,26,PGG1000
485,1,4.53,4,1,F,27,PGG1000
486,1,4.53,2,1,F,26,PGG1000
487,1,4.53,6,1,F,58,PGG1000
488,1,4.53,2,1,F,20,PGG1000
489,1,4.53,2,1,F,23,PGG1000
490,1,4.53,10,1,M,33,PGG1000
491,1,4.53,6,1,F,25,PGG1000
492,1,4.53,4,1,F,30,PGG1000
493,0,4.53,0,1,F,21,PGG1000
494,1,4.53,0,1,M,39,PGG1000
495,1,4.53,6,1,F,33,PGG1000
496,1,4.53,2,1,F,19,PGG1000
497,1,4.53,10,1,F,49,PGG1000
498,1,4.53,10,1,M,26,PGG1000
499,1,4.53,4,1,F,26,PGG1000
500,1,4.53,4,1,F,28,PGG1000
501,1,4.53,4,1,F,40,PGG1000
502,1,4.53,4,1,F,26,PGG1000
503,1,4.53,6,1,F,60,PGG1000
504,1,4.53,4,1,M,23,PGG1000
505,1,4.53,4,1,F,52,PGG1000
506,1,4.53,10,1,F,27,PGG1000
507,1,4.53,2,1,F,31,PGG1000
508,1,4.53,4,1,F,33,PGG1000
509,1,4.53,6,1,F,36,PGG1000
510,1,4.53,0,1,M,28,PGG1000
511,1,4.53,10,1,M,41,PGG1000
512,1,4.53,4,1,F,25,PGG1000
513,1,4.53,2,1,F,32,PGG1000
514,1,4.53,4,1,F,25,PGG1000
515,1,4.53,4,1,F,43,PGG1000
516,1,4.53,6,1,F,34,PGG1000
517,1,4.53,2,1,F,30,PGG1000
518,1,4.53,6,1,M,20,PGG1000
519,1,4.53,4,1,F,26,PGG1000
520,1,4.53,2,1,F,24,PGG1000
521,1,4.53,8,1,M,20,PGG1000
522,1,4.53,2,1,M,23,PGG1000
523,1,4.53,2,1,M,22,PGG1000
524,1,4.53,0,1,M,23,PGG1000
525,1,4.53,6,1,F,60,PGG1000
526,1,4.53,6,1,F,43,PGG1000
527,1,4.53,6,1,M,43,PGG1000
528,1,4.53,6,1,F,20,PGG1000
529,1,4.53,8,1,F,26,PGG1000
530,1,4.53,2,1,F,44,PGG1000
531,1,4.53,8,1,M,29,PGG1000
532,1,4.53,2,1,F,32,PGG1000
533,1,4.53,4,1,F,24,PGG1000
534,0,4.53,0,1,M,47,PGG1000
535,1,4.53,2,1,F,54,PGG1000
536,1,4.53,0,1,F,35,PGG1000
537,1,4.53,2,1,F,25,PGG1000
538,1,4.53,4,1,M,35,PGG1000
539,1,4.53,0,1,M,27,PGG1000
540,1,4.53,4,1,F,23,PGG1000
541,0,4.53,0,1,#N/A,#N/A,PGG1000
542,1,4.53,8,1,F,39,PGG1000
543,1,4.53,0,1,F,24,PGG1000
544,1,4.53,0,1,M,27,PGG1000
545,1,4.53,6,1,M,25,PGG1000
546,1,4.53,4,1,F,26,PGG1000
547,1,4.53,4,1,F,23,PGG1000
548,1,4.53,4,1,M,23,PGG1000
549,1,4.53,10,1,M,53,PGG1000
550,1,4.53,8,1,M,31,PGG1000
551,1,4.53,8,1,M,50,PGG1000
552,1,4.53,4,1,F,20,PGG1000
553,1,4.53,4,1,F,45,PGG1000
554,1,4.53,10,1,F,56,PGG1000
555,1,4.53,0,1,F,27,PGG1000
556,1,4.53,4,1,F,33,PGG1000
557,1,4.53,6,1,M,25,PGG1000
558,0,4.53,1,1,F,47,PGG1000
559,1,4.53,4,1,F,43,PGG1000
560,1,4.53,4,1,F,41,PGG1000
561,1,4.53,4,1,F,23,PGG1000
562,1,4.53,4,1,F,44,PGG1000
563,1,4.53,2,1,F,50,PGG1000
564,1,4.53,4,1,M,26,PGG1000
565,1,4.53,4,1,F,20,PGG1000
566,1,4.53,6,1,M,58,PGG1000
567,1,4.53,4,1,F,28,PGG1000
568,1,4.53,10,1,F,23,PGG1000
569,1,4.53,2,1,M,35,PGG1000
570,1,4.53,2,1,F,23,PGG1000
571,1,4.53,8,1,F,26,PGG1000
572,1,4.53,0,1,M,32,PGG1000
573,1,4.53,2,1,M,20,PGG1000
574,1,4.53,6,1,F,30,PGG1000
575,1,4.53,10,1,F,29,PGG1000
576,1,4.53,2,1,M,27,PGG1000
577,1,4.53,8,1,M,31,PGG1000
578,1,4.53,4,1,F,45,PGG1000
579,1,4.53,8,1,F,36,PGG1000
580,1,4.53,2,1,F,23,PGG1000
581,1,4.53,4,1,M,20,PGG1000
582,1,4.53,4,1,F,21,PGG1000
583,1,4.53,6,1,F,27,PGG1000
584,1,4.53,4,1,F,21,PGG1000
585,1,4.53,2,1,F,35,PGG1000
586,1,4.53,0,1,F,28,PGG1000
587,1,4.53,8,1,F,24,PGG1000
588,1,4.53,6,1,F,26,PGG1000
589,1,4.53,6,1,M,31,PGG1000
590,1,4.53,0,1,M,22,PGG1000
591,1,4.53,0,1,M,20,PGG1000
592,1,4.53,0,1,M,29,PGG1000
593,1,4.53,2,1,M,22,PGG1000
594,1,4.53,4,1,M,20,PGG1000
595,1,4.53,2,1,F,47,PGG1000
596,1,4.53,2,1,M,19,PGG1000
597,1,4.53,6,1,M,36,PGG1000
598,1,4.53,4,1,M,34,PGG1000
599,1,4.53,6,1,F,21,PGG1000
600,1,4.53,4,1,F,28,PGG1000
601,1,4.53,6,1,F,34,PGG1000
602,1,4.53,2,1,F,26,PGG1000
603,1,4.53,4,1,F,30,PGG1000
604,1,4.53,4,1,M,22,PGG1000
605,1,4.53,0,1,F,23,PGG1000
606,1,4.53,4,1,M,24,PGG1000
607,1,4.53,4,1,M,19,PGG1000
608,1,4.53,2,1,M,24,PGG1000
609,1,4.53,4,1,F,35,PGG1000
610,1,4.53,4,1,F,26,PGG1000
611,1,4.53,0,1,F,27,PGG1000
612,1,4.53,4,1,F,23,PGG1000
613,1,4.53,6,1,F,48,PGG1000
614,1,4.53,2,1,M,24,PGG1000
615,1,4.53,6,1,F,47,PGG1000
616,1,4.53,8,1,M,21,PGG1000
617,1,4.53,6,1,M,38,PGG1000
618,1,4.53,6,1,F,43,PGG1000
619,1,4.53,2,1,M,37,PGG1000
620,1,4.53,10,1,F,24,PGG1000
621,1,4.53,0,1,M,20,PGG1000
622,1,4.53,6,1,F,28,PGG1000
623,1,4.53,8,1,F,33,PGG1000
624,1,4.53,8,1,F,35,PGG1000
625,1,4.53,8,1,F,33,PGG1000
626,1,4.53,4,1,F,39,PGG1000
627,1,4.53,6,1,F,22,PGG1000
628,1,4.53,6,1,F,55,PGG1000
629,1,4.53,10,1,F,29,PGG1000
630,1,4.53,0,1,M,31,PGG1000
631,1,4.53,0,1,F,20,PGG1000
632,1,4.53,10,1,F,26,PGG1000
633,0,4.53,0,1,F,43,PGG1000
634,0,4.53,0,1,F,24,PGG1000
635,1,4.53,4,1,M,27,PGG1000
636,1,4.53,4,1,F,23,PGG1000
637,0,4.53,0,1,F,48,PGG1000
638,0,4.53,1,1,F,41,PGG1000
639,1,4.53,8,1,M,22,PGG1000
640,1,4.53,2,1,F,20,PGG1000
641,1,4.53,4,1,F,61,PGG1000
642,1,4.53,6,1,M,45,PGG1000
643,1,4.53,4,1,F,45,PGG1000
644,1,4.53,6,1,F,24,PGG1000
645,1,4.53,6,1,M,19,PGG1000
646,1,4.53,4,1,F,19,PGG1000
647,1,4.53,2,1,M,24,PGG1000
648,1,4.53,2,1,F,41,PGG1000
649,1,4.53,0,1,M,20,PGG1000
650,1,4.53,6,1,M,20,PGG1000
651,1,4.53,6,1,F,24,PGG1000
652,1,4.53,4,1,F,39,PGG1000
653,1,4.53,2,1,F,53,PGG1000
654,1,4.53,6,1,M,50,PGG1000
655,1,4.53,2,1,F,23,PGG1000
656,1,4.53,4,1,F,18,PGG1000
657,1,4.53,0,1,M,24,PGG1000
658,1,4.53,6,1,F,37,PGG1000
659,1,4.53,10,1,M,32,PGG1000
660,1,4.53,2,1,F,25,PGG1000
661,1,4.53,4,1,F,28,PGG1000
662,1,4.53,2,1,F,27,PGG1000
663,0,4.53,1,1,F,36,PGG1000
664,1,4.53,6,1,M,37,PGG1000
665,1,4.53,2,1,F,51,PGG1000
666,0,4.53,0,1,F,31,PGG1000
667,1,4.53,8,1,F,27,PGG1000
668,1,4.53,2,1,F,30,PGG1000
669,1,4.53,4,1,F,27,PGG1000
670,1,4.53,6,1,F,25,PGG1000
671,1,4.53,4,1,M,25,PGG1000
672,1,4.53,2,1,F,34,PGG1000
673,1,4.53,8,1,M,24,PGG1000
674,1,4.53,6,1,M,30,PGG1000
675,1,4.53,2,1,M,55,PGG1000
676,1,4.53,10,1,M,44,PGG1000
677,1,4.53,6,1,M,55,PGG1000
678,1,4.53,4,1,F,25,PGG1000
679,1,4.53,4,1,F,19,PGG1000
680,0,4.53,1,1,F,37,PGG1000
681,1,4.53,4,1,F,28,PGG1000
682,1,4.53,8,1,M,22,PGG1000
683,1,4.53,4,1,F,34,PGG1000
684,1,4.53,6,1,F,42,PGG1000
685,0,4.53,0,1,M,25,PGG1000
686,1,4.53,10,1,F,37,PGG1000
687,1,4.53,0,1,M,26,PGG1000
688,1,4.53,4,1,F,31,PGG1000
689,1,4.53,2,1,F,31,PGG1000
690,1,4.53,10,1,F,47,PGG1000
691,1,4.53,4,1,F,35,PGG1000
692,1,4.53,2,1,M,21,PGG1000
693,1,4.53,8,1,M,68,PGG1000
694,1,4.53,4,1,M,49,PGG1000
695,1,4.53,2,1,F,26,PGG1000
696,1,4.53,2,1,F,36,PGG1000
697,1,4.53,6,1,F,21,PGG1000
698,1,4.53,6,1,F,38,PGG1000
699,1,4.53,4,1,M,21,PGG1000
700,1,4.53,6,1,F,21,PGG1000
701,1,4.53,0,1,F,24,PGG1000
702,1,4.53,4,1,M,40,PGG1000
703,1,4.53,2,1,M,21,PGG1000
704,0,4.53,0,1,F,43,PGG1000
705,1,4.53,10,1,F,25,PGG1000
706,1,4.53,2,1,F,37,PGG1000
707,1,4.53,0,1,F,21,PGG1000
708,1,4.53,10,1,M,29,PGG1000
709,1,4.53,6,1,M,54,PGG1000
710,0,4.53,1,1,M,19,PGG1000
711,1,4.53,10,1,F,30,PGG1000
712,1,4.53,6,1,F,45,PGG1000
713,1,4.53,2,1,F,22,PGG1000
714,1,4.53,6,1,F,25,PGG1000
715,1,4.53,4,1,M,41,PGG1000
716,0,4.53,0,1,M,21,PGG1000
717,1,4.53,10,1,M,28,PGG1000
718,1,4.53,10,1,M,31,PGG1000
719,1,4.53,6,1,F,38,PGG1000
720,1,4.53,10,1,F,52,PGG1000
721,1,4.53,4,1,F,29,PGG1000
722,0,4.53,0,1,F,32,PGG1000
723,1,4.53,10,1,F,42,PGG1000
724,1,4.53,4,1,M,40,PGG1000
725,1,4.53,4,1,F,39,PGG1000
726,1,4.53,4,1,M,38,PGG1000
727,1,4.53,2,1,F,21,PGG1000
728,1,4.53,0,1,F,27,PGG1000
729,1,4.53,6,1,M,61,PGG1000
730,1,4.53,2,1,F,23,PGG1000
731,1,4.53,6,1,F,21,PGG1000
732,1,4.53,2,1,F,33,PGG1000
733,1,4.53,6,1,M,34,PGG1000
734,1,4.53,10,1,M,28,PGG1000
735,1,4.53,4,1,F,24,PGG1000
736,1,4.53,10,1,F,64,PGG1000
737,1,4.53,4,1,M,48,PGG1000
738,1,4.53,6,1,F,26,PGG1000
739,1,4.53,6,1,F,39,PGG1000
740,1,4.53,6,1,M,26,PGG1000
741,1,4.53,6,1,M,24,PGG1000
742,1,4.53,4,1,M,39,PGG1000
743,1,4.53,4,1,F,44,PGG1000
744,0,4.53,0,1,M,41,PGG1000
745,1,4.53,6,1,F,45,PGG1000
746,1,4.53,6,1,F,30,PGG1000
747,1,4.53,2,1,F,55,PGG1000
748,1,4.53,10,1,F,43,PGG1000
749,1,4.53,4,1,F,30,PGG1000
750,0,4.53,0,1,M,24,PGG1000
751,1,4.53,4,1,M,56,PGG1000
752,1,4.53,2,1,F,44,PGG1000
753,1,4.53,10,1,M,51,PGG1000
754,1,4.53,4,1,F,37,PGG1000
755,1,4.53,4,1,F,21,PGG1000
756,1,4.53,4,1,F,46,PGG1000
757,1,4.53,6,1,F,43,PGG1000
758,1,4.53,2,1,F,23,PGG1000
759,1,4.53,6,1,M,22,PGG1000
760,1,4.53,2,1,F,31,PGG1000
761,1,4.53,4,1,F,29,PGG1000
762,0,4.53,0,1,M,35,PGG1000
763,1,4.53,2,1,M,23,PGG1000
764,1,4.53,0,1,M,24,PGG1000
765,1,4.53,4,1,M,40,PGG1000
766,1,4.53,4,1,F,58,PGG1000
767,1,4.53,6,1,F,27,PGG1000
768,1,4.53,4,1,F,32,PGG1000
769,1,4.53,4,1,F,26,PGG1000
770,0,4.53,0,1,M,23,PGG1000
771,1,4.53,4,1,F,23,PGG1000
772,1,4.53,10,1,F,51,PGG1000
773,1,4.53,10,1,M,25,PGG1000
774,1,4.53,4,1,M,30,PGG1000
775,0,4.53,0,1,F,40,PGG1000
776,1,4.53,10,1,M,35,PGG1000
777,1,4.53,6,1,F,50,PGG1000
778,1,4.53,4,1,M,33,PGG1000
779,1,4.53,4,1,F,40,PGG1000
780,0,4.53,1,1,M,24,PGG1000
781,1,4.53,4,1,F,42,PGG1000
782,1,4.53,10,1,F,46,PGG1000
783,1,4.53,8,1,F,31,PGG1000
784,1,4.53,10,1,M,40,PGG1000
785,1,4.53,4,1,F,33,PGG1000
786,1,4.53,4,1,F,22,PGG1000
787,0,4.53,0,1,M,42,PGG1000
788,1,4.53,2,1,M,49,PGG1000
789,1,4.53,0,1,F,57,PGG1000
790,1,4.53,0,1,F,27,PGG1000
791,1,4.53,4,1,F,26,PGG1000
792,1,4.53,4,1,M,22,PGG1000
793,1,4.53,8,1,M,23,PGG1000
794,1,4.53,0,1,F,29,PGG1000
795,1,4.53,6,1,F,51,PGG1000
796,1,4.53,4,1,M,44,PGG1000
797,0,4.53,0,1,M,24,PGG1000
798,1,4.53,4,1,F,19,PGG1000
799,1,4.53,0,1,M,21,PGG1000
800,1,4.53,4,1,F,34,PGG1000
801,1,4.53,10,1,M,23,PGG1000
802,1,4.53,8,1,F,48,PGG1000
803,1,4.53,2,1,F,23,PGG1000
804,1,4.53,2,1,F,20,PGG1000
805,1,4.53,6,1,M,32,PGG1000
806,1,4.53,2,1,M,33,PGG1000
807,1,4.53,4,1,M,21,PGG1000
808,1,4.53,4,1,F,37,PGG1000
809,1,4.53,0,1,M,22,PGG1000
810,1,4.53,2,1,F,27,PGG1000
811,0,4.53,0,1,M,24,PGG1000
812,1,4.53,4,1,M,23,PGG1000
813,1,4.53,10,1,F,23,PGG1000
814,1,4.53,10,1,M,22,PGG1000
815,1,4.53,0,1,F,30,PGG1000
816,1,4.53,4,1,F,22,PGG1000
817,1,4.53,0,1,M,40,PGG1000
818,1,4.53,2,1,M,20,PGG1000
819,1,4.53,4,1,F,29,PGG1000
820,1,4.53,4,1,M,35,PGG1000
821,1,4.53,4,1,M,24,PGG1000
822,1,4.53,6,1,F,35,PGG1000
823,1,4.53,2,1,F,20,PGG1000
824,1,4.53,2,1,F,57,PGG1000
825,1,4.53,4,1,M,22,PGG1000
826,1,4.53,4,1,F,41,PGG1000
827,1,4.53,4,1,F,19,PGG1000
828,1,4.53,10,1,M,20,PGG1000
829,1,4.53,2,1,F,51,PGG1000
830,1,4.53,10,1,M,32,PGG1000
831,1,4.53,2,1,F,40,PGG1000
832,1,4.53,4,1,M,63,PGG1000
833,1,4.53,10,1,M,22,PGG1000
834,1,4.53,4,1,F,18,PGG1000
835,1,4.53,6,1,M,23,PGG1000
836,1,4.53,4,1,M,36,PGG1000
837,1,4.53,2,1,F,24,PGG1000
838,1,4.53,4,1,F,24,PGG1000
839,1,4.53,6,1,M,20,PGG1000
840,1,4.53,6,1,F,19,PGG1000
841,1,4.53,6,1,F,46,PGG1000
842,1,4.53,2,1,F,24,PGG1000
843,1,4.53,6,1,F,47,PGG1000
844,1,4.53,6,1,F,26,PGG1000
845,1,4.53,2,1,F,37,PGG1000
846,1,4.53,2,1,F,19,PGG1000
847,1,4.53,4,1,M,47,PGG1000
848,1,4.53,6,1,F,51,PGG1000
849,1,4.53,4,1,F,22,PGG1000
850,1,4.53,6,1,M,55,PGG1000
851,1,4.53,0,1,F,26,PGG1000
852,0,4.53,1,1,F,51,PGG1000
853,1,4.53,2,1,F,19,PGG1000
854,1,4.53,10,1,M,31,PGG1000
855,1,4.53,0,1,F,27,PGG1000
856,1,4.53,6,1,F,19,PGG1000
857,1,4.53,6,1,M,23,PGG1000
858,1,4.53,10,1,F,42,PGG1000
859,1,4.53,10,1,F,21,PGG1000
860,1,4.53,4,1,M,51,PGG1000
861,0,4.53,0,1,M,24,PGG1000
862,1,4.53,4,1,M,23,PGG1000
863,1,4.53,10,1,F,41,PGG1000
864,1,4.53,2,1,M,21,PGG1000
865,1,4.53,4,1,F,21,PGG1000
866,1,4.53,2,1,F,45,PGG1000
867,1,4.53,6,1,M,24,PGG1000
868,1,4.53,0,1,M,24,PGG1000
869,0,4.53,1,1,F,19,PGG1000
870,1,4.53,4,1,F,49,PGG1000
871,1,4.53,2,1,F,24,PGG1000
872,1,4.53,10,1,F,26,PGG1000
873,1,4.53,4,1,F,21,PGG1000
874,1,4.53,4,1,F,23,PGG1000
875,1,4.53,2,1,M,22,PGG1000
876,1,4.53,6,1,F,27,PGG1000
877,1,4.53,0,1,F,20,PGG1000
878,1,4.53,2,1,F,23,PGG1000
879,1,4.53,4,1,M,39,PGG1000
880,1,4.53,2,1,M,23,PGG1000
881,1,4.53,4,1,F,51,PGG1000
882,1,4.53,10,1,M,23,PGG1000
883,1,4.53,8,1,M,23,PGG1000
884,1,4.53,0,1,F,28,PGG1000
885,1,4.53,2,1,F,24,PGG1000
886,1,4.53,2,1,M,22,PGG1000
887,1,4.53,0,1,M,26,PGG1000
888,1,4.53,10,1,F,19,PGG1000
889,1,4.53,6,1,F,25,PGG1000
890,1,4.53,6,1,F,27,PGG1000
891,1,4.53,0,1,F,28,PGG1000
892,1,4.53,0,1,F,22,PGG1000
893,1,4.53,4,1,M,24,PGG1000
894,1,4.53,6,1,M,27,PGG1000
895,1,4.53,2,1,M,20,PGG1000
896,1,4.53,8,1,F,21,PGG1000
897,1,4.53,2,1,F,27,PGG1000
898,1,4.53,2,1,F,21,PGG1000
899,1,4.53,2,1,M,23,PGG1000
900,1,4.53,0,1,M,24,PGG1000
901,1,4.53,4,1,F,21,PGG1000
902,1,4.53,2,1,F,28,PGG1000
903,1,4.53,6,1,M,21,PGG1000
904,1,4.53,10,1,M,24,PGG1000
905,1,4.53,8,1,M,22,PGG1000
906,0,4.53,1,1,M,23,PGG1000
907,1,4.53,2,1,M,22,PGG1000
908,1,4.53,10,1,M,21,PGG1000
909,1,4.53,4,1,F,21,PGG1000
910,1,4.53,8,1,M,24,PGG1000
911,1,4.53,8,1,M,48,PGG1000
912,1,4.53,6,1,F,25,PGG1000
913,1,4.53,6,1,M,30,PGG1000
914,1,4.53,6,1,F,26,PGG1000
915,1,4.53,2,1,F,24,PGG1000
916,1,4.53,2,1,F,21,PGG1000
917,0,4.53,1,1,M,22,PGG1000
918,1,4.53,10,1,F,27,PGG1000
919,1,4.53,2,1,F,29,PGG1000
920,1,4.53,10,1,F,25,PGG1000
921,0,4.53,1,1,#N/A,#N/A,PGG1000
922,1,4.53,4,1,F,23,PGG1000
923,1,4.53,6,1,F,27,PGG1000
924,0,4.53,0,1,F,21,PGG1000
925,1,4.53,2,1,F,22,PGG1000
926,1,4.53,2,1,F,20,PGG1000
927,1,4.53,4,1,F,30,PGG1000
928,1,4.53,2,1,M,21,PGG1000
929,0,4.53,0,1,F,27,PGG1000
930,1,4.53,4,1,M,21,PGG1000
931,1,4.53,4,1,M,33,PGG1000
932,1,4.53,2,1,F,24,PGG1000
933,1,4.53,4,1,F,25,PGG1000
934,0,4.53,0,1,F,23,PGG1000
935,1,4.53,0,1,M,32,PGG1000
936,1,4.53,8,1,F,27,PGG1000
937,1,4.53,6,1,F,54,PGG1000
938,1,4.53,2,1,M,20,PGG1000
939,1,4.53,8,1,M,24,PGG1000
940,1,4.53,0,1,M,23,PGG1000
941,1,4.53,4,1,F,24,PGG1000
942,1,4.53,2,1,F,19,PGG1000
943,1,4.53,4,1,M,23,PGG1000
944,1,4.53,4,1,F,22,PGG1000
945,1,4.53,4,1,M,28,PGG1000
946,1,4.53,4,1,F,35,PGG1000
947,1,4.53,2,1,F,23,PGG1000
948,1,4.53,10,1,M,22,PGG1000
949,1,4.53,4,1,F,22,PGG1000
950,1,4.53,2,1,F,21,PGG1000
951,1,4.53,2,1,F,23,PGG1000
952,0,4.53,1,1,F,21,PGG1000
953,1,4.53,8,1,M,33,PGG1000
954,1,4.53,0,1,F,22,PGG1000
955,1,4.53,0,1,F,26,PGG1000
956,1,4.53,4,1,F,25,PGG1000
957,0,4.53,0,1,M,28,PGG1000
958,1,4.53,4,1,M,37,PGG1000
959,1,4.53,4,1,M,36,PGG1000
960,1,4.53,6,1,F,35,PGG1000
961,1,4.53,0,1,M,20,PGG1000
962,1,4.53,2,1,M,42,PGG1000
963,1,4.53,0,1,F,27,PGG1000
964,1,4.53,8,1,F,24,PGG1000
965,1,4.53,2,1,F,22,PGG1000
966,1,4.53,10,1,F,36,PGG1000
967,1,4.53,2,1,F,33,PGG1000
968,1,4.53,10,1,F,28,PGG1000
969,1,4.53,0,1,F,28,PGG1000
970,1,4.53,4,1,M,46,PGG1000
971,1,4.53,4,1,F,32,PGG1000
972,0,4.53,0,1,F,28,PGG1000
973,1,4.53,2,1,F,22,PGG1000
974,1,4.53,2,1,F,55,PGG1000
975,1,4.53,0,1,M,21,PGG1000
976,1,4.53,8,1,M,20,PGG1000
977,1,4.53,0,1,F,21,PGG1000
978,1,4.53,2,1,F,30,PGG1000
979,1,4.53,4,1,M,22,PGG1000
980,0,4.53,0,1,F,56,PGG1000
981,1,4.53,4,1,F,25,PGG1000
982,1,4.53,10,1,M,35,PGG1000
983,1,4.53,4,1,F,41,PGG1000
984,1,4.53,6,1,F,34,PGG1000
985,1,4.53,8,1,M,43,PGG1000
986,1,4.53,2,1,F,23,PGG1000
987,1,4.53,10,1,M,29,PGG1000
988,1,4.53,6,1,M,22,PGG1000
989,1,4.53,10,1,M,35,PGG1000
990,1,4.53,2,1,F,41,PGG1000
991,1,4.53,4,1,F,20,PGG1000
992,0,4.53,0,1,M,55,PGG1000
993,1,4.53,6,1,F,56,PGG1000
994,1,4.53,4,1,F,37,PGG1000
995,0,4.53,0,1,M,41,PGG1000
996,1,4.53,2,1,F,31,PGG1000
997,1,4.53,10,1,F,32,PGG1000
998,1,4.53,6,1,F,42,PGG1000
999,1,4.53,2,1,F,22,PGG1000
1000,1,4.53,2,1,F,44,PGG1000
1001,1,4.53,0,1,F,25,PGG1000
1002,1,4.53,6,1,M,23,PGG1000
1003,0,4.53,0,1,M,33,PGG1000
1004,1,4.53,6,1,M,65,PGG1000
,,,,,,,
1,1,5.41,2,2,M,52,PGG1000
2,1,5.41,0,2,M,34,PGG1000
3,1,5.41,0,2,M,31,PGG1000
4,1,5.41,6,2,F,32,PGG1000
5,1,5.41,4,2,M,66,PGG1000
6,0,5.41,0,2,F,26,PGG1000
7,1,5.41,10,2,M,43,PGG1000
8,1,5.41,6,2,M,20,PGG1000
9,1,5.41,10,2,F,41,PGG1000
10,1,5.41,6,2,F,21,PGG1000
11,1,5.41,4,2,M,40,PGG1000
12,1,5.41,0,2,F,36,PGG1000
13,1,5.41,10,2,M,21,PGG1000
14,1,5.41,8,2,F,20,PGG1000
15,1,5.41,10,2,F,36,PGG1000
16,1,5.41,4,2,F,28,PGG1000
17,0,5.41,0,2,F,28,PGG1000
18,1,5.41,4,2,F,40,PGG1000
19,1,5.41,6,2,F,22,PGG1000
20,1,5.41,4,2,M,29,PGG1000
21,1,5.41,10,2,M,23,PGG1000
22,1,5.41,6,2,F,26,PGG1000
23,1,5.41,4,2,F,21,PGG1000
24,1,5.41,4,2,F,32,PGG1000
25,1,5.41,0,2,F,35,PGG1000
26,1,5.41,4,2,F,33,PGG1000
27,1,5.41,6,2,F,36,PGG1000
28,1,5.41,4,2,F,42,PGG1000
29,1,5.41,4,2,F,28,PGG1000
30,1,5.41,10,2,F,58,PGG1000
31,1,5.41,8,2,M,32,PGG1000
32,1,5.41,4,2,F,29,PGG1000
33,1,5.41,6,2,F,44,PGG1000
34,1,5.41,8,2,F,25,PGG1000
35,1,5.41,4,2,M,24,PGG1000
36,1,5.41,2,2,F,26,PGG1000
37,1,5.41,4,2,M,24,PGG1000
38,1,5.41,0,2,F,23,PGG1000
39,1,5.41,8,2,F,30,PGG1000
40,1,5.41,8,2,M,21,PGG1000
41,1,5.41,4,2,M,30,PGG1000
42,1,5.41,8,2,M,33,PGG1000
43,1,5.41,2,2,M,25,PGG1000
44,1,5.41,4,2,F,39,PGG1000
45,1,5.41,4,2,F,21,PGG1000
46,1,5.41,6,2,M,43,PGG1000
47,1,5.41,4,2,F,32,PGG1000
48,1,5.41,0,2,M,40,PGG1000
49,0,5.41,0,2,F,42,PGG1000
50,1,5.41,4,2,M,23,PGG1000
51,1,5.41,6,2,F,38,PGG1000
52,1,5.41,8,2,F,23,PGG1000
53,1,5.41,6,2,F,30,PGG1000
54,1,5.41,10,2,M,24,PGG1000
55,1,5.41,4,2,F,28,PGG1000
56,1,5.41,0,2,M,36,PGG1000
57,1,5.41,8,2,M,24,PGG1000
58,1,5.41,6,2,F,27,PGG1000
59,1,5.41,6,2,F,23,PGG1000
60,1,5.41,10,2,M,25,PGG1000
61,1,5.41,10,2,F,29,PGG1000
62,1,5.41,6,2,M,20,PGG1000
63,1,5.41,4,2,F,25,PGG1000
64,1,5.41,4,2,M,37,PGG1000
65,1,5.41,6,2,F,28,PGG1000
66,1,5.41,4,2,F,27,PGG1000
67,0,5.41,0,2,M,19,PGG1000
68,1,5.41,6,2,F,25,PGG1000
69,1,5.41,10,2,F,23,PGG1000
70,1,5.41,10,2,F,21,PGG1000
71,1,5.41,4,2,F,19,PGG1000
72,1,5.41,10,2,F,41,PGG1000
73,1,5.41,4,2,F,23,PGG1000
74,1,5.41,6,2,F,24,PGG1000
75,1,5.41,4,2,F,22,PGG1000
76,1,5.41,2,2,M,22,PGG1000
77,1,5.41,4,2,F,28,PGG1000
78,1,5.41,0,2,M,39,PGG1000
79,1,5.41,6,2,F,55,PGG1000
80,1,5.41,10,2,F,37,PGG1000
81,1,5.41,10,2,M,34,PGG1000
82,1,5.41,8,2,F,23,PGG1000
83,1,5.41,10,2,F,24,PGG1000
84,1,5.41,4,2,F,25,PGG1000
85,1,5.41,10,2,M,49,PGG1000
86,1,5.41,10,2,F,37,PGG1000
87,1,5.41,2,2,F,22,PGG1000
88,1,5.41,2,2,M,22,PGG1000
89,1,5.41,6,2,M,21,PGG1000
90,1,5.41,4,2,F,50,PGG1000
91,1,5.41,4,2,F,52,PGG1000
92,1,5.41,2,2,M,38,PGG1000
93,1,5.41,6,2,M,45,PGG1000
94,0,5.41,0,2,F,22,PGG1000
95,1,5.41,8,2,M,26,PGG1000
96,1,5.41,10,2,F,30,PGG1000
97,1,5.41,8,2,M,20,PGG1000
98,1,5.41,4,2,M,22,PGG1000
99,1,5.41,10,2,F,27,PGG1000
100,1,5.41,8,2,F,47,PGG1000
101,1,5.41,8,2,M,26,PGG1000
102,1,5.41,6,2,F,34,PGG1000
103,1,5.41,10,2,M,32,PGG1000
104,1,5.41,4,2,M,20,PGG1000
105,0,5.41,0,2,M,23,PGG1000
106,1,5.41,6,2,F,38,PGG1000
107,1,5.41,2,2,F,25,PGG1000
108,1,5.41,6,2,F,43,PGG1000
109,1,5.41,0,2,M,29,PGG1000
110,1,5.41,4,2,M,20,PGG1000
111,1,5.41,8,2,M,25,PGG1000
112,1,5.41,10,2,F,46,PGG1000
113,1,5.41,6,2,F,22,PGG1000
114,1,5.41,10,2,M,26,PGG1000
115,1,5.41,4,2,M,24,PGG1000
116,1,5.41,4,2,F,26,PGG1000
117,1,5.41,0,2,F,33,PGG1000
118,1,5.41,8,2,F,60,PGG1000
119,1,5.41,6,2,M,43,PGG1000
120,1,5.41,6,2,F,45,PGG1000
121,1,5.41,10,2,F,31,PGG1000
122,1,5.41,6,2,F,39,PGG1000
123,1,5.41,6,2,M,33,PGG1000
124,1,5.41,0,2,M,19,PGG1000
125,1,5.41,0,2,F,20,PGG1000
126,1,5.41,0,2,M,23,PGG1000
127,1,5.41,4,2,F,24,PGG1000
128,1,5.41,10,2,M,21,PGG1000
129,1,5.41,2,2,F,44,PGG1000
130,1,5.41,8,2,F,37,PGG1000
131,1,5.41,8,2,M,35,PGG1000
132,1,5.41,8,2,M,23,PGG1000
133,1,5.41,2,2,M,29,PGG1000
134,1,5.41,10,2,M,55,PGG1000
135,1,5.41,4,2,M,30,PGG1000
136,1,5.41,0,2,M,24,PGG1000
137,1,5.41,10,2,M,42,PGG1000
138,1,5.41,4,2,F,21,PGG1000
139,1,5.41,10,2,M,38,PGG1000
140,1,5.41,4,2,M,27,PGG1000
141,1,5.41,6,2,F,26,PGG1000
142,1,5.41,8,2,M,42,PGG1000
143,1,5.41,4,2,F,49,PGG1000
144,1,5.41,4,2,M,20,PGG1000
145,1,5.41,0,2,F,22,PGG1000
146,1,5.41,6,2,F,31,PGG1000
147,1,5.41,4,2,M,27,PGG1000
148,1,5.41,5,2,F,24,PGG1000
149,1,5.41,0,2,M,37,PGG1000
150,1,5.41,2,2,F,34,PGG1000
151,1,5.41,0,2,M,28,PGG1000
152,1,5.41,10,2,F,28,PGG1000
153,1,5.41,10,2,M,24,PGG1000
154,0,5.41,0,2,#N/A,#N/A,PGG1000
155,1,5.41,8,2,F,23,PGG1000
156,1,5.41,0,2,M,26,PGG1000
157,1,5.41,0,2,F,29,PGG1000
158,1,5.41,6,2,F,21,PGG1000
159,1,5.41,6,2,M,45,PGG1000
160,1,5.41,4,2,F,49,PGG1000
161,1,5.41,6,2,F,29,PGG1000
162,1,5.41,6,2,F,30,PGG1000
163,1,5.41,6,2,M,21,PGG1000
164,0,5.41,0,2,F,38,PGG1000
165,1,5.41,10,2,M,27,PGG1000
166,1,5.41,0,2,M,24,PGG1000
167,1,5.41,6,2,M,25,PGG1000
168,1,5.41,10,2,M,28,PGG1000
169,1,5.41,6,2,F,23,PGG1000
170,1,5.41,0,2,F,25,PGG1000
171,1,5.41,10,2,M,27,PGG1000
172,1,5.41,6,2,F,23,PGG1000
173,1,5.41,6,2,M,21,PGG1000
174,1,5.41,10,2,F,31,PGG1000
175,1,5.41,4,2,F,35,PGG1000
176,1,5.41,0,2,M,37,PGG1000
177,1,5.41,5,2,F,23,PGG1000
178,1,5.41,8,2,M,35,PGG1000
179,1,5.41,8,2,F,25,PGG1000
180,1,5.41,4,2,F,52,PGG1000
181,1,5.41,6,2,F,44,PGG1000
182,0,5.41,0,2,M,39,PGG1000
183,1,5.41,4,2,M,53,PGG1000
184,1,5.41,4,2,M,28,PGG1000
185,1,5.41,6,2,F,27,PGG1000
186,1,5.41,4,2,M,36,PGG1000
187,1,5.41,4,2,M,21,PGG1000
188,1,5.41,6,2,F,24,PGG1000
189,0,5.41,0,2,F,27,PGG1000
190,1,5.41,6,2,F,26,PGG1000
191,1,5.41,6,2,F,25,PGG1000
192,1,5.41,10,2,F,38,PGG1000
193,1,5.41,2,2,F,28,PGG1000
194,1,5.41,2,2,F,36,PGG1000
195,1,5.41,2,2,F,43,PGG1000
196,1,5.41,10,2,F,41,PGG1000
197,1,5.41,6,2,F,36,PGG1000
198,1,5.41,4,2,F,28,PGG1000
199,1,5.41,6,2,F,56,PGG1000
200,1,5.41,6,2,F,21,PGG1000
201,1,5.41,4,2,M,22,PGG1000
202,1,5.41,4,2,F,42,PGG1000
203,1,5.41,4,2,F,25,PGG1000
204,1,5.41,10,2,M,25,PGG1000
205,1,5.41,6,2,F,24,PGG1000
206,1,5.41,10,2,F,44,PGG1000
207,0,5.41,0,2,M,29,PGG1000
208,1,5.41,2,2,F,39,PGG1000
209,1,5.41,8,2,F,33,PGG1000
210,1,5.41,4,2,F,25,PGG1000
211,1,5.41,6,2,F,37,PGG1000
212,0,5.41,0,2,F,26,PGG1000
213,1,5.41,6,2,F,44,PGG1000
214,1,5.41,10,2,F,46,PGG1000
215,0,5.41,0,2,M,27,PGG1000
216,1,5.41,4,2,F,20,PGG1000
217,1,5.41,2,2,F,21,PGG1000
218,1,5.41,4,2,F,20,PGG1000
219,1,5.41,4,2,F,28,PGG1000
220,1,5.41,8,2,F,42,PGG1000
221,1,5.41,8,2,F,27,PGG1000
222,1,5.41,8,2,F,29,PGG1000
223,1,5.41,6,2,F,51,PGG1000
224,1,5.41,8,2,F,25,PGG1000
225,0,5.41,0,2,M,51,PGG1000
226,1,5.41,6,2,F,20,PGG1000
227,1,5.41,8,2,F,22,PGG1000
228,1,5.41,2,2,M,23,PGG1000
229,1,5.41,6,2,M,64,PGG1000
230,1,5.41,6,2,F,22,PGG1000
231,1,5.41,8,2,F,26,PGG1000
232,1,5.41,4,2,M,27,PGG1000
233,1,5.41,6,2,F,29,PGG1000
234,1,5.41,2,2,F,30,PGG1000
235,1,5.41,6,2,F,34,PGG1000
236,1,5.41,4,2,F,26,PGG1000
237,1,5.41,8,2,F,25,PGG1000
238,0,5.41,0,2,F,22,PGG1000
239,1,5.41,6,2,F,38,PGG1000
240,1,5.41,8,2,F,52,PGG1000
241,1,5.41,2,2,F,23,PGG1000
242,1,5.41,6,2,F,42,PGG1000
243,1,5.41,6,2,F,30,PGG1000
244,1,5.41,4,2,F,25,PGG1000
245,1,5.41,6,2,M,40,PGG1000
246,0,5.41,0,2,M,31,PGG1000
247,0,5.41,0,2,F,55,PGG1000
248,1,5.41,10,2,F,25,PGG1000
249,0,5.41,0,2,F,20,PGG1000
250,1,5.41,4,2,F,22,PGG1000
251,1,5.41,8,2,F,23,PGG1000
252,1,5.41,4,2,F,25,PGG1000
253,1,5.41,10,2,M,22,PGG1000
254,1,5.41,8,2,M,20,PGG1000
255,1,5.41,4,2,M,22,PGG1000
256,1,5.41,6,2,M,41,PGG1000
257,1,5.41,4,2,M,45,PGG1000
258,1,5.41,8,2,F,47,PGG1000
259,1,5.41,0,2,M,32,PGG1000
260,1,5.41,4,2,F,35,PGG1000
261,1,5.41,10,2,F,21,PGG1000
262,1,5.41,4,2,F,26,PGG1000
263,1,5.41,4,2,F,28,PGG1000
264,1,5.41,10,2,F,48,PGG1000
265,1,5.41,6,2,F,19,PGG1000
266,1,5.41,6,2,F,25,PGG1000
267,1,5.41,6,2,F,22,PGG1000
268,1,5.41,6,2,M,38,PGG1000
269,1,5.41,2,2,F,30,PGG1000
270,1,5.41,8,2,F,23,PGG1000
271,1,5.41,4,2,F,62,PGG1000
272,1,5.41,0,2,M,21,PGG1000
273,1,5.41,8,2,F,23,PGG1000
274,1,5.41,6,2,M,28,PGG1000
275,1,5.41,0,2,M,22,PGG1000
276,0,5.41,0,2,M,21,PGG1000
277,1,5.41,8,2,F,26,PGG1000
278,1,5.41,6,2,M,27,PGG1000
279,1,5.41,6,2,F,41,PGG1000
280,1,5.41,6,2,F,24,PGG1000
281,1,5.41,6,2,M,25,PGG1000
282,1,5.41,4,2,F,28,PGG1000
283,1,5.41,2,2,F,48,PGG1000
284,1,5.41,10,2,M,20,PGG1000
285,1,5.41,6,2,M,44,PGG1000
286,1,5.41,4,2,M,22,PGG1000
287,1,5.41,8,2,F,21,PGG1000
288,1,5.41,6,2,F,20,PGG1000
289,1,5.41,0,2,F,23,PGG1000
290,1,5.41,4,2,M,21,PGG1000
291,1,5.41,0,2,M,32,PGG1000
292,1,5.41,10,2,M,48,PGG1000
293,1,5.41,10,2,M,41,PGG1000
294,1,5.41,6,2,M,36,PGG1000
295,1,5.41,4,2,F,21,PGG1000
296,1,5.41,6,2,F,41,PGG1000
297,1,5.41,10,2,M,27,PGG1000
298,1,5.41,2,2,M,21,PGG1000
299,1,5.41,6,2,F,23,PGG1000
300,1,5.41,2,2,F,36,PGG1000
301,1,5.41,10,2,F,44,PGG1000
302,1,5.41,10,2,F,51,PGG1000
303,1,5.41,8,2,M,30,PGG1000
304,1,5.41,10,2,M,23,PGG1000
305,1,5.41,10,2,M,42,PGG1000
306,1,5.41,6,2,F,26,PGG1000
307,1,5.41,0,2,M,24,PGG1000
308,1,5.41,6,2,F,22,PGG1000
309,1,5.41,6,2,F,30,PGG1000
310,1,5.41,8,2,M,43,PGG1000
311,1,5.41,6,2,F,51,PGG1000
312,1,5.41,6,2,F,25,PGG1000
313,1,5.41,6,2,M,31,PGG1000
314,1,5.41,6,2,M,27,PGG1000
315,1,5.41,4,2,M,22,PGG1000
316,1,5.41,6,2,M,24,PGG1000
317,1,5.41,0,2,M,22,PGG1000
318,1,5.41,4,2,F,32,PGG1000
319,1,5.41,8,2,M,46,PGG1000
320,1,5.41,0,2,M,23,PGG1000
321,1,5.41,6,2,M,27,PGG1000
322,1,5.41,10,2,M,36,PGG1000
323,1,5.41,6,2,F,26,PGG1000
324,1,5.41,2,2,F,35,PGG1000
325,0,5.41,0,2,M,33,PGG1000
326,1,5.41,6,2,M,33,PGG1000
327,1,5.41,10,2,M,47,PGG1000
328,1,5.41,4,2,F,36,PGG1000
329,1,5.41,4,2,F,35,PGG1000
330,1,5.41,6,2,F,23,PGG1000
331,1,5.41,8,2,F,28,PGG1000
332,1,5.41,4,2,M,41,PGG1000
333,1,5.41,8,2,F,42,PGG1000
334,1,5.41,6,2,F,25,PGG1000
335,1,5.41,6,2,F,46,PGG1000
336,1,5.41,4,2,F,39,PGG1000
337,1,5.41,4,2,F,23,PGG1000
338,1,5.41,10,2,F,46,PGG1000
339,1,5.41,10,2,F,38,PGG1000
340,1,5.41,2,2,F,28,PGG1000
341,1,5.41,6,2,F,38,PGG1000
342,1,5.41,4,2,F,28,PGG1000
343,1,5.41,8,2,M,46,PGG1000
344,1,5.41,8,2,M,33,PGG1000
345,1,5.41,10,2,F,29,PGG1000
346,1,5.41,6,2,F,24,PGG1000
347,1,5.41,10,2,M,29,PGG1000
348,0,5.41,0,2,M,21,PGG1000
349,1,5.41,6,2,M,24,PGG1000
350,1,5.41,8,2,F,49,PGG1000
351,1,5.41,8,2,M,49,PGG1000
352,1,5.41,0,2,F,36,PGG1000
353,1,5.41,10,2,M,33,PGG1000
354,1,5.41,8,2,F,20,PGG1000
355,1,5.41,6,2,F,23,PGG1000
356,1,5.41,6,2,M,20,PGG1000
357,1,5.41,4,2,F,28,PGG1000
358,1,5.41,8,2,M,50,PGG1000
359,1,5.41,10,2,M,46,PGG1000
360,1,5.41,4,2,M,26,PGG1000
361,1,5.41,10,2,M,21,PGG1000
362,1,5.41,6,2,F,24,PGG1000
363,1,5.41,6,2,M,19,PGG1000
364,1,5.41,2,2,F,32,PGG1000
365,1,5.41,6,2,F,43,PGG1000
366,1,5.41,10,2,F,48,PGG1000
367,1,5.41,6,2,F,49,PGG1000
368,1,5.41,4,2,F,40,PGG1000
369,1,5.41,6,2,F,30,PGG1000
370,1,5.41,10,2,M,24,PGG1000
371,0,5.41,0,2,M,52,PGG1000
372,1,5.41,4,2,F,34,PGG1000
373,1,5.41,4,2,M,23,PGG1000
374,1,5.41,0,2,F,27,PGG1000
375,1,5.41,6,2,F,19,PGG1000
376,1,5.41,6,2,M,29,PGG1000
377,1,5.41,0,2,M,22,PGG1000
378,1,5.41,10,2,M,24,PGG1000
379,1,5.41,0,2,M,21,PGG1000
380,1,5.41,10,2,M,60,PGG1000
381,1,5.41,6,2,F,41,PGG1000
382,1,5.41,8,2,F,26,PGG1000
383,1,5.41,2,2,M,31,PGG1000
384,1,5.41,10,2,F,44,PGG1000
385,1,5.41,4,2,F,24,PGG1000
386,1,5.41,2,2,M,33,PGG1000
387,1,5.41,0,2,F,19,PGG1000
388,1,5.41,4,2,F,22,PGG1000
389,1,5.41,6,2,F,22,PGG1000
390,1,5.41,4,2,F,23,PGG1000
391,1,5.41,6,2,M,23,PGG1000
392,1,5.41,8,2,M,27,PGG1000
393,0,5.41,0,2,M,59,PGG1000
394,1,5.41,0,2,F,25,PGG1000
395,1,5.41,10,2,F,52,PGG1000
396,1,5.41,8,2,F,40,PGG1000
397,1,5.41,10,2,M,34,PGG1000
398,1,5.41,6,2,F,24,PGG1000
399,1,5.41,6,2,F,23,PGG1000
400,0,5.41,0,2,F,22,PGG1000
401,0,5.41,0,2,F,29,PGG1000
402,1,5.41,2,2,F,48,PGG1000
403,1,5.41,6,2,F,28,PGG1000
404,1,5.41,4,2,M,21,PGG1000
405,1,5.41,8,2,#N/A,#N/A,PGG1000
406,1,5.41,10,2,F,27,PGG1000
407,1,5.41,6,2,F,43,PGG1000
408,1,5.41,6,2,F,30,PGG1000
409,1,5.41,0,2,M,32,PGG1000
410,1,5.41,4,2,F,52,PGG1000
411,1,5.41,6,2,F,23,PGG1000
412,1,5.41,6,2,F,23,PGG1000
413,0,5.41,0,2,M,23,PGG1000
414,1,5.41,3,2,M,25,PGG1000
415,1,5.41,2,2,M,29,PGG1000
416,1,5.41,6,2,F,26,PGG1000
417,1,5.41,2,2,F,46,PGG1000
418,1,5.41,4,2,F,37,PGG1000
419,1,5.41,6,2,F,22,PGG1000
420,1,5.41,4,2,F,30,PGG1000
421,1,5.41,4,2,M,39,PGG1000
422,1,5.41,10,2,F,44,PGG1000
423,1,5.41,10,2,F,26,PGG1000
424,1,5.41,6,2,M,20,PGG1000
425,1,5.41,6,2,M,21,PGG1000
426,1,5.41,2,2,F,23,PGG1000
427,1,5.41,6,2,F,21,PGG1000
428,1,5.41,4,2,F,23,PGG1000
429,1,5.41,0,2,F,19,PGG1000
430,1,5.41,2,2,F,42,PGG1000
431,1,5.41,0,2,M,26,PGG1000
432,1,5.41,8,2,F,35,PGG1000
433,1,5.41,2,2,F,43,PGG1000
434,1,5.41,4,2,F,22,PGG1000
435,1,5.41,6,2,F,34,PGG1000
436,1,5.41,6,2,F,21,PGG1000
437,1,5.41,10,2,F,29,PGG1000
438,1,5.41,10,2,M,30,PGG1000
439,1,5.41,10,2,F,47,PGG1000
440,1,5.41,0,2,M,21,PGG1000
441,1,5.41,2,2,M,23,PGG1000
442,1,5.41,4,2,M,20,PGG1000
443,1,5.41,6,2,F,52,PGG1000
444,1,5.41,8,2,F,24,PGG1000
445,1,5.41,4,2,F,23,PGG1000
446,1,5.41,8,2,M,23,PGG1000
447,1,5.41,8,2,M,22,PGG1000
448,1,5.41,4,2,F,26,PGG1000
449,1,5.41,4,2,M,20,PGG1000
450,1,5.41,0,2,F,23,PGG1000
451,0,5.41,0,2,M,41,PGG1000
452,1,5.41,6,2,M,35,PGG1000
453,1,5.41,10,2,M,21,PGG1000
454,1,5.41,8,2,M,21,PGG1000
455,1,5.41,8,2,M,32,PGG1000
456,1,5.41,6,2,M,20,PGG1000
457,1,5.41,8,2,F,26,PGG1000
458,1,5.41,4,2,F,25,PGG1000
459,1,5.41,8,2,M,24,PGG1000
460,1,5.41,4,2,M,27,PGG1000
461,1,5.41,6,2,F,20,PGG1000
462,1,5.41,8,2,M,52,PGG1000
463,1,5.41,8,2,M,31,PGG1000
464,1,5.41,6,2,F,23,PGG1000
465,0,5.41,0,2,F,22,PGG1000
466,1,5.41,4,2,M,22,PGG1000
467,1,5.41,4,2,F,49,PGG1000
468,1,5.41,8,2,F,32,PGG1000
469,1,5.41,6,2,F,26,PGG1000
470,1,5.41,6,2,F,31,PGG1000
471,1,5.41,10,2,M,34,PGG1000
472,1,5.41,6,2,F,29,PGG1000
473,1,5.41,6,2,F,44,PGG1000
474,1,5.41,4,2,F,36,PGG1000
475,1,5.41,0,2,F,25,PGG1000
476,1,5.41,10,2,M,41,PGG1000
477,0,5.41,0,2,F,24,PGG1000
478,1,5.41,2,2,F,25,PGG1000
479,1,5.41,6,2,F,20,PGG1000
480,1,5.41,4,2,M,46,PGG1000
481,0,5.41,0,2,M,24,PGG1000
482,1,5.41,4,2,F,23,PGG1000
483,1,5.41,10,2,F,29,PGG1000
484,1,5.41,10,2,F,26,PGG1000
485,1,5.41,6,2,F,27,PGG1000
486,1,5.41,4,2,F,26,PGG1000
487,1,5.41,4,2,F,58,PGG1000
488,1,5.41,4,2,F,20,PGG1000
489,1,5.41,4,2,F,23,PGG1000
490,1,5.41,8,2,M,33,PGG1000
491,1,5.41,6,2,F,25,PGG1000
492,1,5.41,6,2,F,30,PGG1000
493,0,5.41,0,2,F,21,PGG1000
494,1,5.41,2,2,M,39,PGG1000
495,1,5.41,4,2,F,33,PGG1000
496,1,5.41,8,2,F,19,PGG1000
497,1,5.41,10,2,F,49,PGG1000
498,1,5.41,10,2,M,26,PGG1000
499,1,5.41,6,2,F,26,PGG1000
500,1,5.41,6,2,F,28,PGG1000
501,1,5.41,2,2,F,40,PGG1000
502,1,5.41,4,2,F,26,PGG1000
503,1,5.41,6,2,F,60,PGG1000
504,1,5.41,4,2,M,23,PGG1000
505,1,5.41,4,2,F,52,PGG1000
506,1,5.41,10,2,F,27,PGG1000
507,1,5.41,10,2,F,31,PGG1000
508,1,5.41,6,2,F,33,PGG1000
509,1,5.41,8,2,F,36,PGG1000
510,1,5.41,0,2,M,28,PGG1000
511,1,5.41,10,2,M,41,PGG1000
512,1,5.41,4,2,F,25,PGG1000
513,1,5.41,4,2,F,32,PGG1000
514,1,5.41,8,2,F,25,PGG1000
515,1,5.41,4,2,F,43,PGG1000
516,1,5.41,10,2,F,34,PGG1000
517,1,5.41,4,2,F,30,PGG1000
518,1,5.41,4,2,M,20,PGG1000
519,1,5.41,6,2,F,26,PGG1000
520,1,5.41,6,2,F,24,PGG1000
521,1,5.41,0,2,M,20,PGG1000
522,1,5.41,2,2,M,23,PGG1000
523,1,5.41,4,2,M,22,PGG1000
524,1,5.41,2,2,M,23,PGG1000
525,1,5.41,6,2,F,60,PGG1000
526,1,5.41,2,2,F,43,PGG1000
527,1,5.41,8,2,M,43,PGG1000
528,1,5.41,8,2,F,20,PGG1000
529,1,5.41,8,2,F,26,PGG1000
530,1,5.41,10,2,F,44,PGG1000
531,1,5.41,8,2,M,29,PGG1000
532,1,5.41,4,2,F,32,PGG1000
533,1,5.41,4,2,F,24,PGG1000
534,0,5.41,0,2,M,47,PGG1000
535,1,5.41,2,2,F,54,PGG1000
536,1,5.41,2,2,F,35,PGG1000
537,1,5.41,0,2,F,25,PGG1000
538,1,5.41,4,2,M,35,PGG1000
539,1,5.41,0,2,M,27,PGG1000
540,1,5.41,6,2,F,23,PGG1000
541,0,5.41,0,2,#N/A,#N/A,PGG1000
542,1,5.41,10,2,F,39,PGG1000
543,1,5.41,2,2,F,24,PGG1000
544,1,5.41,6,2,M,27,PGG1000
545,1,5.41,10,2,M,25,PGG1000
546,1,5.41,8,2,F,26,PGG1000
547,1,5.41,8,2,F,23,PGG1000
548,1,5.41,8,2,M,23,PGG1000
549,1,5.41,0,2,M,53,PGG1000
550,1,5.41,10,2,M,31,PGG1000
551,1,5.41,8,2,M,50,PGG1000
552,1,5.41,6,2,F,20,PGG1000
553,1,5.41,4,2,F,45,PGG1000
554,1,5.41,6,2,F,56,PGG1000
555,1,5.41,0,2,F,27,PGG1000
556,1,5.41,4,2,F,33,PGG1000
557,1,5.41,8,2,M,25,PGG1000
558,0,5.41,0,2,F,47,PGG1000
559,1,5.41,6,2,F,43,PGG1000
560,1,5.41,10,2,F,41,PGG1000
561,1,5.41,6,2,F,23,PGG1000
562,1,5.41,6,2,F,44,PGG1000
563,1,5.41,4,2,F,50,PGG1000
564,1,5.41,6,2,M,26,PGG1000
565,1,5.41,6,2,F,20,PGG1000
566,1,5.41,4,2,M,58,PGG1000
567,1,5.41,6,2,F,28,PGG1000
568,1,5.41,10,2,F,23,PGG1000
569,1,5.41,4,2,M,35,PGG1000
570,1,5.41,2,2,F,23,PGG1000
571,1,5.41,6,2,F,26,PGG1000
572,1,5.41,0,2,M,32,PGG1000
573,1,5.41,2,2,M,20,PGG1000
574,1,5.41,6,2,F,30,PGG1000
575,1,5.41,10,2,F,29,PGG1000
576,1,5.41,4,2,M,27,PGG1000
577,1,5.41,8,2,M,31,PGG1000
578,1,5.41,4,2,F,45,PGG1000
579,1,5.41,8,2,F,36,PGG1000
580,1,5.41,4,2,F,23,PGG1000
581,1,5.41,4,2,M,20,PGG1000
582,1,5.41,10,2,F,21,PGG1000
583,1,5.41,4,2,F,27,PGG1000
584,1,5.41,6,2,F,21,PGG1000
585,1,5.41,0,2,F,35,PGG1000
586,1,5.41,0,2,F,28,PGG1000
587,1,5.41,6,2,F,24,PGG1000
588,1,5.41,6,2,F,26,PGG1000
589,1,5.41,6,2,M,31,PGG1000
590,1,5.41,0,2,M,22,PGG1000
591,1,5.41,2,2,M,20,PGG1000
592,1,5.41,0,2,M,29,PGG1000
593,1,5.41,4,2,M,22,PGG1000
594,1,5.41,4,2,M,20,PGG1000
595,1,5.41,4,2,F,47,PGG1000
596,1,5.41,2,2,M,19,PGG1000
597,1,5.41,8,2,M,36,PGG1000
598,1,5.41,4,2,M,34,PGG1000
599,1,5.41,8,2,F,21,PGG1000
600,1,5.41,6,2,F,28,PGG1000
601,1,5.41,8,2,F,34,PGG1000
602,1,5.41,4,2,F,26,PGG1000
603,1,5.41,6,2,F,30,PGG1000
604,1,5.41,8,2,M,22,PGG1000
605,1,5.41,2,2,F,23,PGG1000
606,1,5.41,6,2,M,24,PGG1000
607,1,5.41,2,2,M,19,PGG1000
608,1,5.41,2,2,M,24,PGG1000
609,1,5.41,6,2,F,35,PGG1000
610,1,5.41,8,2,F,26,PGG1000
611,1,5.41,0,2,F,27,PGG1000
612,1,5.41,6,2,F,23,PGG1000
613,1,5.41,8,2,F,48,PGG1000
614,1,5.41,8,2,M,24,PGG1000
615,1,5.41,10,2,F,47,PGG1000
616,1,5.41,8,2,M,21,PGG1000
617,1,5.41,8,2,M,38,PGG1000
618,1,5.41,10,2,F,43,PGG1000
619,1,5.41,4,2,M,37,PGG1000
620,1,5.41,10,2,F,24,PGG1000
621,1,5.41,10,2,M,20,PGG1000
622,1,5.41,0,2,F,28,PGG1000
623,1,5.41,2,2,F,33,PGG1000
624,1,5.41,8,2,F,35,PGG1000
625,1,5.41,6,2,F,33,PGG1000
626,1,5.41,4,2,F,39,PGG1000
627,1,5.41,4,2,F,22,PGG1000
628,1,5.41,8,2,F,55,PGG1000
629,1,5.41,10,2,F,29,PGG1000
630,1,5.41,0,2,M,31,PGG1000
631,1,5.41,0,2,F,20,PGG1000
632,1,5.41,10,2,F,26,PGG1000
633,0,5.41,0,2,F,43,PGG1000
634,0,5.41,0,2,F,24,PGG1000
635,1,5.41,10,2,M,27,PGG1000
636,1,5.41,6,2,F,23,PGG1000
637,0,5.41,0,2,F,48,PGG1000
638,0,5.41,0,2,F,41,PGG1000
639,1,5.41,8,2,M,22,PGG1000
640,1,5.41,10,2,F,20,PGG1000
641,1,5.41,4,2,F,61,PGG1000
642,1,5.41,2,2,M,45,PGG1000
643,1,5.41,4,2,F,45,PGG1000
644,1,5.41,6,2,F,24,PGG1000
645,1,5.41,8,2,M,19,PGG1000
646,1,5.41,6,2,F,19,PGG1000
647,1,5.41,6,2,M,24,PGG1000
648,1,5.41,4,2,F,41,PGG1000
649,1,5.41,10,2,M,20,PGG1000
650,1,5.41,8,2,M,20,PGG1000
651,1,5.41,4,2,F,24,PGG1000
652,1,5.41,4,2,F,39,PGG1000
653,1,5.41,4,2,F,53,PGG1000
654,1,5.41,4,2,M,50,PGG1000
655,1,5.41,2,2,F,23,PGG1000
656,1,5.41,4,2,F,18,PGG1000
657,1,5.41,0,2,M,24,PGG1000
658,1,5.41,6,2,F,37,PGG1000
659,1,5.41,10,2,M,32,PGG1000
660,1,5.41,0,2,F,25,PGG1000
661,1,5.41,6,2,F,28,PGG1000
662,1,5.41,2,2,F,27,PGG1000
663,0,5.41,0,2,F,36,PGG1000
664,1,5.41,10,2,M,37,PGG1000
665,1,5.41,2,2,F,51,PGG1000
666,0,5.41,0,2,F,31,PGG1000
667,1,5.41,6,2,F,27,PGG1000
668,1,5.41,4,2,F,30,PGG1000
669,1,5.41,6,2,F,27,PGG1000
670,1,5.41,6,2,F,25,PGG1000
671,1,5.41,6,2,M,25,PGG1000
672,1,5.41,2,2,F,34,PGG1000
673,1,5.41,10,2,M,24,PGG1000
674,1,5.41,4,2,M,30,PGG1000
675,1,5.41,4,2,M,55,PGG1000
676,1,5.41,10,2,M,44,PGG1000
677,1,5.41,10,2,M,55,PGG1000
678,1,5.41,8,2,F,25,PGG1000
679,1,5.41,2,2,F,19,PGG1000
680,0,5.41,0,2,F,37,PGG1000
681,1,5.41,8,2,F,28,PGG1000
682,1,5.41,6,2,M,22,PGG1000
683,1,5.41,6,2,F,34,PGG1000
684,1,5.41,8,2,F,42,PGG1000
685,0,5.41,0,2,M,25,PGG1000
686,1,5.41,10,2,F,37,PGG1000
687,1,5.41,0,2,M,26,PGG1000
688,1,5.41,8,2,F,31,PGG1000
689,1,5.41,10,2,F,31,PGG1000
690,1,5.41,10,2,F,47,PGG1000
691,1,5.41,2,2,F,35,PGG1000
692,1,5.41,4,2,M,21,PGG1000
693,1,5.41,6,2,M,68,PGG1000
694,1,5.41,6,2,M,49,PGG1000
695,1,5.41,0,2,F,26,PGG1000
696,1,5.41,10,2,F,36,PGG1000
697,1,5.41,4,2,F,21,PGG1000
698,1,5.41,10,2,F,38,PGG1000
699,1,5.41,4,2,M,21,PGG1000
700,1,5.41,8,2,F,21,PGG1000
701,1,5.41,4,2,F,24,PGG1000
702,1,5.41,4,2,M,40,PGG1000
703,1,5.41,4,2,M,21,PGG1000
704,0,5.41,0,2,F,43,PGG1000
705,1,5.41,10,2,F,25,PGG1000
706,1,5.41,4,2,F,37,PGG1000
707,1,5.41,2,2,F,21,PGG1000
708,1,5.41,6,2,M,29,PGG1000
709,1,5.41,8,2,M,54,PGG1000
710,0,5.41,0,2,M,19,PGG1000
711,1,5.41,10,2,F,30,PGG1000
712,1,5.41,8,2,F,45,PGG1000
713,1,5.41,6,2,F,22,PGG1000
714,1,5.41,8,2,F,25,PGG1000
715,1,5.41,6,2,M,41,PGG1000
716,0,5.41,0,2,M,21,PGG1000
717,1,5.41,8,2,M,28,PGG1000
718,1,5.41,2,2,M,31,PGG1000
719,1,5.41,6,2,F,38,PGG1000
720,1,5.41,10,2,F,52,PGG1000
721,1,5.41,4,2,F,29,PGG1000
722,0,5.41,0,2,F,32,PGG1000
723,1,5.41,4,2,F,42,PGG1000
724,1,5.41,4,2,M,40,PGG1000
725,1,5.41,4,2,F,39,PGG1000
726,1,5.41,6,2,M,38,PGG1000
727,1,5.41,4,2,F,21,PGG1000
728,1,5.41,0,2,F,27,PGG1000
729,1,5.41,8,2,M,61,PGG1000
730,1,5.41,2,2,F,23,PGG1000
731,1,5.41,0,2,F,21,PGG1000
732,1,5.41,4,2,F,33,PGG1000
733,1,5.41,8,2,M,34,PGG1000
734,1,5.41,8,2,M,28,PGG1000
735,1,5.41,10,2,F,24,PGG1000
736,1,5.41,8,2,F,64,PGG1000
737,1,5.41,10,2,M,48,PGG1000
738,1,5.41,6,2,F,26,PGG1000
739,1,5.41,4,2,F,39,PGG1000
740,1,5.41,4,2,M,26,PGG1000
741,1,5.41,10,2,M,24,PGG1000
742,1,5.41,8,2,M,39,PGG1000
743,1,5.41,6,2,F,44,PGG1000
744,0,5.41,0,2,M,41,PGG1000
745,1,5.41,8,2,F,45,PGG1000
746,1,5.41,4,2,F,30,PGG1000
747,1,5.41,4,2,F,55,PGG1000
748,1,5.41,10,2,F,43,PGG1000
749,1,5.41,8,2,F,30,PGG1000
750,0,5.41,0,2,M,24,PGG1000
751,1,5.41,6,2,M,56,PGG1000
752,1,5.41,2,2,F,44,PGG1000
753,1,5.41,10,2,M,51,PGG1000
754,1,5.41,2,2,F,37,PGG1000
755,1,5.41,4,2,F,21,PGG1000
756,1,5.41,6,2,F,46,PGG1000
757,1,5.41,10,2,F,43,PGG1000
758,1,5.41,4,2,F,23,PGG1000
759,1,5.41,0,2,M,22,PGG1000
760,1,5.41,8,2,F,31,PGG1000
761,1,5.41,6,2,F,29,PGG1000
762,0,5.41,0,2,M,35,PGG1000
763,1,5.41,4,2,M,23,PGG1000
764,1,5.41,0,2,M,24,PGG1000
765,1,5.41,6,2,M,40,PGG1000
766,1,5.41,4,2,F,58,PGG1000
767,1,5.41,6,2,F,27,PGG1000
768,1,5.41,4,2,F,32,PGG1000
769,1,5.41,8,2,F,26,PGG1000
770,0,5.41,0,2,M,23,PGG1000
771,1,5.41,8,2,F,23,PGG1000
772,1,5.41,8,2,F,51,PGG1000
773,1,5.41,10,2,M,25,PGG1000
774,1,5.41,2,2,M,30,PGG1000
775,0,5.41,0,2,F,40,PGG1000
776,1,5.41,10,2,M,35,PGG1000
777,1,5.41,4,2,F,50,PGG1000
778,1,5.41,6,2,M,33,PGG1000
779,1,5.41,4,2,F,40,PGG1000
780,0,5.41,0,2,M,24,PGG1000
781,1,5.41,4,2,F,42,PGG1000
782,1,5.41,10,2,F,46,PGG1000
783,1,5.41,10,2,F,31,PGG1000
784,1,5.41,10,2,M,40,PGG1000
785,1,5.41,6,2,F,33,PGG1000
786,1,5.41,4,2,F,22,PGG1000
787,0,5.41,0,2,M,42,PGG1000
788,1,5.41,2,2,M,49,PGG1000
789,1,5.41,2,2,F,57,PGG1000
790,1,5.41,0,2,F,27,PGG1000
791,1,5.41,6,2,F,26,PGG1000
792,1,5.41,2,2,M,22,PGG1000
793,1,5.41,2,2,M,23,PGG1000
794,1,5.41,0,2,F,29,PGG1000
795,1,5.41,4,2,F,51,PGG1000
796,1,5.41,4,2,M,44,PGG1000
797,0,5.41,0,2,M,24,PGG1000
798,1,5.41,4,2,F,19,PGG1000
799,1,5.41,2,2,M,21,PGG1000
800,1,5.41,8,2,F,34,PGG1000
801,1,5.41,8,2,M,23,PGG1000
802,1,5.41,8,2,F,48,PGG1000
803,1,5.41,6,2,F,23,PGG1000
804,1,5.41,2,2,F,20,PGG1000
805,1,5.41,4,2,M,32,PGG1000
806,1,5.41,8,2,M,33,PGG1000
807,1,5.41,10,2,M,21,PGG1000
808,1,5.41,4,2,F,37,PGG1000
809,1,5.41,4,2,M,22,PGG1000
810,1,5.41,4,2,F,27,PGG1000
811,0,5.41,0,2,M,24,PGG1000
812,1,5.41,6,2,M,23,PGG1000
813,1,5.41,8,2,F,23,PGG1000
814,1,5.41,8,2,M,22,PGG1000
815,1,5.41,8,2,F,30,PGG1000
816,1,5.41,6,2,F,22,PGG1000
817,1,5.41,2,2,M,40,PGG1000
818,1,5.41,4,2,M,20,PGG1000
819,1,5.41,2,2,F,29,PGG1000
820,1,5.41,8,2,M,35,PGG1000
821,1,5.41,6,2,M,24,PGG1000
822,1,5.41,6,2,F,35,PGG1000
823,1,5.41,6,2,F,20,PGG1000
824,1,5.41,0,2,F,57,PGG1000
825,1,5.41,4,2,M,22,PGG1000
826,1,5.41,4,2,F,41,PGG1000
827,1,5.41,6,2,F,19,PGG1000
828,1,5.41,10,2,M,20,PGG1000
829,1,5.41,2,2,F,51,PGG1000
830,1,5.41,8,2,M,32,PGG1000
831,1,5.41,4,2,F,40,PGG1000
832,1,5.41,4,2,M,63,PGG1000
833,1,5.41,10,2,M,22,PGG1000
834,1,5.41,6,2,F,18,PGG1000
835,1,5.41,6,2,M,23,PGG1000
836,1,5.41,4,2,M,36,PGG1000
837,1,5.41,2,2,F,24,PGG1000
838,1,5.41,4,2,F,24,PGG1000
839,1,5.41,4,2,M,20,PGG1000
840,1,5.41,4,2,F,19,PGG1000
841,1,5.41,10,2,F,46,PGG1000
842,1,5.41,4,2,F,24,PGG1000
843,1,5.41,4,2,F,47,PGG1000
844,1,5.41,8,2,F,26,PGG1000
845,1,5.41,4,2,F,37,PGG1000
846,1,5.41,0,2,F,19,PGG1000
847,1,5.41,6,2,M,47,PGG1000
848,1,5.41,8,2,F,51,PGG1000
849,1,5.41,4,2,F,22,PGG1000
850,1,5.41,6,2,M,55,PGG1000
851,1,5.41,0,2,F,26,PGG1000
852,0,5.41,0,2,F,51,PGG1000
853,1,5.41,6,2,F,19,PGG1000
854,1,5.41,10,2,M,31,PGG1000
855,1,5.41,2,2,F,27,PGG1000
856,1,5.41,4,2,F,19,PGG1000
857,1,5.41,10,2,M,23,PGG1000
858,1,5.41,10,2,F,42,PGG1000
859,1,5.41,8,2,F,21,PGG1000
860,1,5.41,6,2,M,51,PGG1000
861,0,5.41,0,2,M,24,PGG1000
862,1,5.41,10,2,M,23,PGG1000
863,1,5.41,10,2,F,41,PGG1000
864,1,5.41,8,2,M,21,PGG1000
865,1,5.41,4,2,F,21,PGG1000
866,1,5.41,4,2,F,45,PGG1000
867,1,5.41,6,2,M,24,PGG1000
868,1,5.41,0,2,M,24,PGG1000
869,0,5.41,0,2,F,19,PGG1000
870,1,5.41,6,2,F,49,PGG1000
871,1,5.41,6,2,F,24,PGG1000
872,1,5.41,10,2,F,26,PGG1000
873,1,5.41,3,2,F,21,PGG1000
874,1,5.41,8,2,F,23,PGG1000
875,1,5.41,4,2,M,22,PGG1000
876,1,5.41,4,2,F,27,PGG1000
877,1,5.41,0,2,F,20,PGG1000
878,1,5.41,0,2,F,23,PGG1000
879,1,5.41,4,2,M,39,PGG1000
880,1,5.41,0,2,M,23,PGG1000
881,1,5.41,6,2,F,51,PGG1000
882,1,5.41,0,2,M,23,PGG1000
883,1,5.41,10,2,M,23,PGG1000
884,1,5.41,0,2,F,28,PGG1000
885,1,5.41,0,2,F,24,PGG1000
886,1,5.41,4,2,M,22,PGG1000
887,1,5.41,2,2,M,26,PGG1000
888,1,5.41,10,2,F,19,PGG1000
889,1,5.41,2,2,F,25,PGG1000
890,1,5.41,4,2,F,27,PGG1000
891,1,5.41,0,2,F,28,PGG1000
892,1,5.41,4,2,F,22,PGG1000
893,1,5.41,6,2,M,24,PGG1000
894,1,5.41,2,2,M,27,PGG1000
895,1,5.41,2,2,M,20,PGG1000
896,1,5.41,6,2,F,21,PGG1000
897,1,5.41,4,2,F,27,PGG1000
898,1,5.41,2,2,F,21,PGG1000
899,1,5.41,2,2,M,23,PGG1000
900,1,5.41,0,2,M,24,PGG1000
901,1,5.41,0,2,F,21,PGG1000
902,1,5.41,4,2,F,28,PGG1000
903,1,5.41,8,2,M,21,PGG1000
904,1,5.41,10,2,M,24,PGG1000
905,1,5.41,0,2,M,22,PGG1000
906,0,5.41,0,2,M,23,PGG1000
907,1,5.41,0,2,M,22,PGG1000
908,1,5.41,10,2,M,21,PGG1000
909,1,5.41,6,2,F,21,PGG1000
910,1,5.41,8,2,M,24,PGG1000
911,1,5.41,8,2,M,48,PGG1000
912,1,5.41,4,2,F,25,PGG1000
913,1,5.41,6,2,M,30,PGG1000
914,1,5.41,8,2,F,26,PGG1000
915,1,5.41,2,2,F,24,PGG1000
916,1,5.41,2,2,F,21,PGG1000
917,0,5.41,0,2,M,22,PGG1000
918,1,5.41,0,2,F,27,PGG1000
919,1,5.41,2,2,F,29,PGG1000
920,1,5.41,8,2,F,25,PGG1000
921,0,5.41,0,2,#N/A,#N/A,PGG1000
922,1,5.41,6,2,F,23,PGG1000
923,1,5.41,8,2,F,27,PGG1000
924,0,5.41,0,2,F,21,PGG1000
925,1,5.41,4,2,F,22,PGG1000
926,1,5.41,2,2,F,20,PGG1000
927,1,5.41,6,2,F,30,PGG1000
928,1,5.41,2,2,M,21,PGG1000
929,0,5.41,0,2,F,27,PGG1000
930,1,5.41,4,2,M,21,PGG1000
931,1,5.41,6,2,M,33,PGG1000
932,1,5.41,4,2,F,24,PGG1000
933,1,5.41,6,2,F,25,PGG1000
934,0,5.41,0,2,F,23,PGG1000
935,1,5.41,0,2,M,32,PGG1000
936,1,5.41,10,2,F,27,PGG1000
937,1,5.41,10,2,F,54,PGG1000
938,1,5.41,4,2,M,20,PGG1000
939,1,5.41,8,2,M,24,PGG1000
940,1,5.41,2,2,M,23,PGG1000
941,1,5.41,2,2,F,24,PGG1000
942,1,5.41,0,2,F,19,PGG1000
943,1,5.41,6,2,M,23,PGG1000
944,1,5.41,6,2,F,22,PGG1000
945,1,5.41,4,2,M,28,PGG1000
946,1,5.41,4,2,F,35,PGG1000
947,1,5.41,2,2,F,23,PGG1000
948,1,5.41,10,2,M,22,PGG1000
949,1,5.41,0,2,F,22,PGG1000
950,1,5.41,6,2,F,21,PGG1000
951,1,5.41,0,2,F,23,PGG1000
952,0,5.41,0,2,F,21,PGG1000
953,1,5.41,10,2,M,33,PGG1000
954,1,5.41,2,2,F,22,PGG1000
955,1,5.41,2,2,F,26,PGG1000
956,1,5.41,2,2,F,25,PGG1000
957,0,5.41,0,2,M,28,PGG1000
958,1,5.41,8,2,M,37,PGG1000
959,1,5.41,6,2,M,36,PGG1000
960,1,5.41,4,2,F,35,PGG1000
961,1,5.41,0,2,M,20,PGG1000
962,1,5.41,2,2,M,42,PGG1000
963,1,5.41,2,2,F,27,PGG1000
964,1,5.41,8,2,F,24,PGG1000
965,1,5.41,4,2,F,22,PGG1000
966,1,5.41,6,2,F,36,PGG1000
967,1,5.41,6,2,F,33,PGG1000
968,1,5.41,10,2,F,28,PGG1000
969,1,5.41,4,2,F,28,PGG1000
970,1,5.41,4,2,M,46,PGG1000
971,1,5.41,10,2,F,32,PGG1000
972,0,5.41,0,2,F,28,PGG1000
973,1,5.41,2,2,F,22,PGG1000
974,1,5.41,8,2,F,55,PGG1000
975,1,5.41,0,2,M,21,PGG1000
976,1,5.41,6,2,M,20,PGG1000
977,1,5.41,0,2,F,21,PGG1000
978,1,5.41,2,2,F,30,PGG1000
979,1,5.41,4,2,M,22,PGG1000
980,0,5.41,0,2,F,56,PGG1000
981,1,5.41,5,2,F,25,PGG1000
982,1,5.41,10,2,M,35,PGG1000
983,1,5.41,4,2,F,41,PGG1000
984,1,5.41,6,2,F,34,PGG1000
985,1,5.41,0,2,M,43,PGG1000
986,1,5.41,0,2,F,23,PGG1000
987,1,5.41,10,2,M,29,PGG1000
988,1,5.41,4,2,M,22,PGG1000
989,1,5.41,10,2,M,35,PGG1000
990,1,5.41,4,2,F,41,PGG1000
991,1,5.41,2,2,F,20,PGG1000
992,0,5.41,0,2,M,55,PGG1000
993,1,5.41,6,2,F,56,PGG1000
994,1,5.41,4,2,F,37,PGG1000
995,0,5.41,0,2,M,41,PGG1000
996,1,5.41,6,2,F,31,PGG1000
997,1,5.41,0,2,F,32,PGG1000
998,1,5.41,10,2,F,42,PGG1000
999,1,5.41,2,2,F,22,PGG1000
1000,1,5.41,4,2,F,44,PGG1000
1001,1,5.41,2,2,F,25,PGG1000
1002,1,5.41,8,2,M,23,PGG1000
1003,0,5.41,0,2,M,33,PGG1000
1004,1,5.41,4,2,M,65,PGG1000
,,,,,,,
1,1,5.54,2,3,M,52,PGG1000
2,1,5.54,0,3,M,34,PGG1000
3,1,5.54,6,3,M,31,PGG1000
4,1,5.54,6,3,F,32,PGG1000
5,1,5.54,6,3,M,66,PGG1000
6,0,5.54,0,3,F,26,PGG1000
7,1,5.54,10,3,M,43,PGG1000
8,1,5.54,8,3,M,20,PGG1000
9,1,5.54,10,3,F,41,PGG1000
10,1,5.54,4,3,F,21,PGG1000
11,1,5.54,0,3,M,40,PGG1000
12,1,5.54,0,3,F,36,PGG1000
13,1,5.54,10,3,M,21,PGG1000
14,1,5.54,6,3,F,20,PGG1000
15,1,5.54,6,3,F,36,PGG1000
16,1,5.54,6,3,F,28,PGG1000
17,0,5.54,0,3,F,28,PGG1000
18,1,5.54,2,3,F,40,PGG1000
19,1,5.54,6,3,F,22,PGG1000
20,1,5.54,4,3,M,29,PGG1000
21,1,5.54,0,3,M,23,PGG1000
22,1,5.54,4,3,F,26,PGG1000
23,1,5.54,6,3,F,21,PGG1000
24,1,5.54,6,3,F,32,PGG1000
25,1,5.54,0,3,F,35,PGG1000
26,1,5.54,2,3,F,33,PGG1000
27,1,5.54,6,3,F,36,PGG1000
28,1,5.54,6,3,F,42,PGG1000
29,1,5.54,6,3,F,28,PGG1000
30,1,5.54,8,3,F,58,PGG1000
31,1,5.54,8,3,M,32,PGG1000
32,1,5.54,6,3,F,29,PGG1000
33,1,5.54,6,3,F,44,PGG1000
34,1,5.54,6,3,F,25,PGG1000
35,1,5.54,4,3,M,24,PGG1000
36,1,5.54,4,3,F,26,PGG1000
37,1,5.54,10,3,M,24,PGG1000
38,1,5.54,0,3,F,23,PGG1000
39,1,5.54,6,3,F,30,PGG1000
40,1,5.54,8,3,M,21,PGG1000
41,1,5.54,6,3,M,30,PGG1000
42,1,5.54,10,3,M,33,PGG1000
43,1,5.54,2,3,M,25,PGG1000
44,1,5.54,2,3,F,39,PGG1000
45,1,5.54,4,3,F,21,PGG1000
46,1,5.54,6,3,M,43,PGG1000
47,1,5.54,6,3,F,32,PGG1000
48,1,5.54,0,3,M,40,PGG1000
49,0,5.54,0,3,F,42,PGG1000
50,1,5.54,6,3,M,23,PGG1000
51,1,5.54,6,3,F,38,PGG1000
52,1,5.54,10,3,F,23,PGG1000
53,1,5.54,8,3,F,30,PGG1000
54,1,5.54,10,3,M,24,PGG1000
55,1,5.54,4,3,F,28,PGG1000
56,1,5.54,0,3,M,36,PGG1000
57,1,5.54,8,3,M,24,PGG1000
58,1,5.54,8,3,F,27,PGG1000
59,1,5.54,6,3,F,23,PGG1000
60,1,5.54,0,3,M,25,PGG1000
61,1,5.54,8,3,F,29,PGG1000
62,1,5.54,6,3,M,20,PGG1000
63,1,5.54,6,3,F,25,PGG1000
64,1,5.54,2,3,M,37,PGG1000
65,1,5.54,6,3,F,28,PGG1000
66,1,5.54,8,3,F,27,PGG1000
67,0,5.54,0,3,M,19,PGG1000
68,1,5.54,6,3,F,25,PGG1000
69,1,5.54,10,3,F,23,PGG1000
70,1,5.54,10,3,F,21,PGG1000
71,1,5.54,6,3,F,19,PGG1000
72,1,5.54,10,3,F,41,PGG1000
73,1,5.54,6,3,F,23,PGG1000
74,1,5.54,6,3,F,24,PGG1000
75,1,5.54,6,3,F,22,PGG1000
76,1,5.54,4,3,M,22,PGG1000
77,1,5.54,2,3,F,28,PGG1000
78,1,5.54,0,3,M,39,PGG1000
79,1,5.54,4,3,F,55,PGG1000
80,1,5.54,10,3,F,37,PGG1000
81,1,5.54,10,3,M,34,PGG1000
82,1,5.54,0,3,F,23,PGG1000
83,1,5.54,10,3,F,24,PGG1000
84,1,5.54,0,3,F,25,PGG1000
